Roll,Pitch,Yaw,AccX,AccY,AccZ,GyroX,GyroY,GyroZ
3.565399646759033,39.42890548706055,29.722169876098633,-6.098782062530518,0.38511955738067627,7.632475852966309,-3.8743019104003906e-05,0.06344599276781082,-0.02357848547399044
3.524801015853882,39.46324157714844,29.67755889892578,-6.032883644104004,0.30939820408821106,7.624740123748779,-0.01908987946808338,0.06589536368846893,-0.04154593124985695
3.482800006866455,39.508056640625,29.6444149017334,-5.985890865325928,0.2356506884098053,7.57234525680542,-0.023821374401450157,0.07668232172727585,-0.031147528439760208
3.482586145401001,39.55305099487305,29.653484344482422,-5.93878173828125,0.18649134039878845,7.468229293823242,-0.01199320238083601,0.07216018438339233,-0.0027745964471250772
3.5180118083953857,39.577186584472656,29.69304656982422,-5.892897129058838,0.22363145649433136,7.4192705154418945,-0.00019036231969948858,0.05361642688512802,0.022411905229091644
3.555255174636841,39.583168029785156,29.738073348999023,-5.856375694274902,0.2919229567050934,7.4143900871276855,-0.003064424032345414,0.03656391054391861,0.03488455340266228
3.5654101371765137,39.58116912841797,29.766788482666016,-5.870913505554199,0.3767475187778473,7.415156841278076,-0.017508119344711304,0.019819848239421844,0.02655927650630474
3.5486807823181152,39.57701110839844,29.76595115661621,-5.9148030281066895,0.4412156939506531,7.3913679122924805,-0.019997354596853256,0.013310649432241917,0.007930584251880646
3.5372769832611084,39.576416015625,29.753963470458984,-5.884347915649414,0.4395522177219391,7.404768466949463,-0.010283292271196842,0.008359737694263458,0.002874992787837982
3.548550844192505,39.57865905761719,29.7639217376709,-5.830544948577881,0.3809839189052582,7.439699649810791,-0.007290393114089966,0.013611654751002789,0.018453411757946014
3.5759177207946777,39.58562088012695,29.805952072143555,-5.814159870147705,0.39449045062065125,7.41121768951416,-0.008141621947288513,0.014290401712059975,0.04036892578005791
3.609311103820801,39.58085632324219,29.853639602661133,-5.845727920532227,0.48104509711265564,7.361326217651367,-5.178154606255703e-05,-0.0009786337614059448,0.04288610443472862
3.632946014404297,39.55681228637695,29.877702713012695,-5.881041526794434,0.5576961040496826,7.420809745788574,0.0002561137080192566,-0.02060793898999691,0.03270041570067406
3.6367838382720947,39.522010803222656,29.880653381347656,-5.91544771194458,0.5948598384857178,7.473479270935059,-0.003044307231903076,-0.03672652319073677,0.018241815268993378
3.6194069385528564,39.47845458984375,29.86624526977539,-5.946451663970947,0.5956075191497803,7.510427951812744,-0.017230210825800896,-0.05697831138968468,0.00014249232481233776
3.5857532024383545,39.42548751831055,29.84126853942871,-5.967822074890137,0.6121504306793213,7.581619739532471,-0.023051351308822632,-0.07009655982255936,-0.009491294622421265
3.5636777877807617,39.37968444824219,29.82462501525879,-6.003679275512695,0.6130155920982361,7.688106536865234,-0.0205162912607193,-0.06402135640382767,-0.007590652909129858
3.556579113006592,39.35002517700195,29.820873260498047,-6.091023921966553,0.6159595251083374,7.721260070800781,-0.017055122181773186,-0.05399584025144577,-0.0035449860151857138
3.5711355209350586,39.32978057861328,29.831838607788086,-6.157218933105469,0.6247817277908325,7.805660247802734,0.0035056849010288715,-0.04028044641017914,0.013072977773845196
3.6176512241363525,39.319271087646484,29.85947608947754,-6.212815761566162,0.655636191368103,7.817624568939209,0.023715756833553314,-0.025581197813153267,0.021915696561336517
3.6455793380737305,39.31195831298828,29.863691329956055,-6.241846561431885,0.6671280860900879,7.823854446411133,0.01750011183321476,-0.022967904806137085,-0.0022117048501968384
3.6085777282714844,39.30656814575195,29.80953025817871,-6.325733661651611,0.6185081601142883,7.8759870529174805,-0.004851818550378084,-0.012488292530179024,-0.0481870137155056
3.5140206813812256,39.31636428833008,29.70805549621582,-6.318939685821533,0.5295224785804749,7.886843204498291,-0.036877769976854324,0.0022007154766470194,-0.09177625179290771
3.4092023372650146,39.343746185302734,29.602603912353516,-6.328762531280518,0.3832555413246155,7.835055828094482,-0.04068464785814285,0.02855156548321247,-0.10131487250328064
3.3560163974761963,39.383827209472656,29.539342880249023,-6.244972229003906,0.29085394740104675,7.7429518699646,-0.02536289393901825,0.042571309953927994,-0.07974392920732498
3.3380074501037598,39.41352462768555,29.510618209838867,-6.163903713226318,0.25891250371932983,7.653919696807861,-0.021303068846464157,0.03952961042523384,-0.06316974759101868
3.318413496017456,39.4327507019043,29.488849639892578,-6.131960391998291,0.21642176806926727,7.642075538635254,-0.020490214228630066,0.03897193819284439,-0.04770943149924278
3.3218092918395996,39.45903778076172,29.487262725830078,-6.098000526428223,0.1952192485332489,7.627719879150391,0.0005399807123467326,0.05032588168978691,-0.020097937434911728
3.3551506996154785,39.494041442871094,29.508087158203125,-6.026885032653809,0.20042848587036133,7.571587562561035,0.007784551475197077,0.05537177622318268,-0.0030256803147494793
3.365846872329712,39.522979736328125,29.517915725708008,-5.998544692993164,0.18152983486652374,7.524112701416016,-0.005732105113565922,0.050286028534173965,-0.006657094694674015
3.3359177112579346,39.544559478759766,29.500225067138672,-5.955305099487305,0.18274861574172974,7.489628314971924,-0.025292115285992622,0.04540887102484703,-0.022125989198684692
3.28084659576416,39.561885833740234,29.4635009765625,-5.9085774421691895,0.17969180643558502,7.445930480957031,-0.04194192960858345,0.0364130362868309,-0.03538579121232033
3.2425754070281982,39.5698127746582,29.440673828125,-5.892209053039551,0.1596660166978836,7.420434951782227,-0.030950460582971573,0.02519991435110569,-0.017921628430485725
3.2727692127227783,39.57231903076172,29.474130630493164,-5.823130130767822,0.18043206632137299,7.432529449462891,-0.0015959145966917276,0.022318029776215553,0.027474574744701385
3.3473312854766846,39.56867218017578,29.54775047302246,-5.849621772766113,0.2724347710609436,7.3998308181762695,0.012870320118963718,0.006459840107709169,0.05412641912698746
3.3916590213775635,39.546329498291016,29.59844398498535,-5.904598236083984,0.3734511435031891,7.446216106414795,0.0005288050160743296,-0.0148382056504488,0.04401710256934166
3.3861777782440186,39.519439697265625,29.609020233154297,-5.955289840698242,0.43354934453964233,7.516232013702393,-0.014955179765820503,-0.020482392981648445,0.027328548952937126
3.377246379852295,39.50455093383789,29.61400032043457,-5.988111972808838,0.48866671323776245,7.531392574310303,-0.011670589447021484,-0.015662984922528267,0.025192461907863617
3.389483690261841,39.49130630493164,29.629535675048828,-6.017402648925781,0.507836103439331,7.544878959655762,-0.005225464701652527,-0.022393465042114258,0.02465117909014225
3.401470899581909,39.469661712646484,29.64484214782715,-5.981193542480469,0.4806942641735077,7.579070091247559,-0.008576735854148865,-0.025501852855086327,0.023629706352949142
3.401752471923828,39.448734283447266,29.658918380737305,-6.016592025756836,0.46392571926116943,7.619518280029297,-0.01783892512321472,-0.027930742129683495,0.022367948666214943
3.391796350479126,39.426353454589844,29.668481826782227,-6.10067081451416,0.5245339870452881,7.6362810134887695,-0.02479442022740841,-0.03150440752506256,0.016683900728821754
3.389061689376831,39.40765380859375,29.676223754882812,-6.074215412139893,0.5582857131958008,7.614560604095459,-0.012490155175328255,-0.02408623695373535,0.018282422795891762
3.4079978466033936,39.39796829223633,29.68380355834961,-6.142214775085449,0.6100572347640991,7.593262195587158,0.006231479812413454,-0.01933872327208519,0.009822658263146877
3.425191640853882,39.39088821411133,29.67876625061035,-6.111196517944336,0.5348172783851624,7.642451763153076,0.010723805986344814,-0.013177096843719482,0.002628378104418516
3.4254629611968994,39.38661575317383,29.668228149414062,-6.085954666137695,0.46302881836891174,7.65289306640625,0.0014906750293448567,-0.010139495134353638,-0.006346032489091158
3.4129292964935303,39.38755416870117,29.657169342041016,-6.065206050872803,0.3884427845478058,7.699911117553711,-0.006558746099472046,0.0020151957869529724,-0.005836785305291414
3.404338836669922,39.393394470214844,29.65556526184082,-6.056557655334473,0.39452576637268066,7.645265579223633,-0.011326373554766178,0.0022375956177711487,-0.003079325193539262
3.3965210914611816,39.389686584472656,29.650903701782227,-6.08819055557251,0.4395696222782135,7.614992618560791,-0.009877235628664494,-0.002693384885787964,-0.008445603772997856
3.3812015056610107,39.37930679321289,29.63130760192871,-6.112824440002441,0.4519416391849518,7.596100330352783,-0.01265257690101862,-0.010374186560511589,-0.019748138263821602
3.344552755355835,39.359947204589844,29.593225479125977,-6.1060380935668945,0.42280662059783936,7.552276611328125,-0.02519153617322445,-0.02468377910554409,-0.03783591091632843
3.2913777828216553,39.3325309753418,29.543556213378906,-6.108686923980713,0.40075016021728516,7.575271129608154,-0.0314805693924427,-0.03300905227661133,-0.04587360844016075
3.2578277587890625,39.30962371826172,29.50935173034668,-6.131697654724121,0.37342432141304016,7.566685199737549,-0.02060011401772499,-0.029871990904211998,-0.03560223802924156
3.2746663093566895,39.298301696777344,29.513608932495117,-6.128754615783691,0.36967816948890686,7.6377854347229,0.0076141213066875935,-0.018234550952911377,-0.0031951817218214273
3.3402440547943115,39.30008316040039,29.561601638793945,-6.125103950500488,0.3734019100666046,7.677626609802246,0.027021585032343864,-0.00046566137461923063,0.0323442742228508
3.413848638534546,39.30759811401367,29.62502670288086,-6.1188788414001465,0.38739868998527527,7.666549205780029,0.03278162330389023,0.004694425035268068,0.04939381778240204
3.4636402130126953,39.30805969238281,29.668542861938477,-6.117836952209473,0.42267730832099915,7.708432674407959,0.026880769059062004,0.0034878035075962543,0.041780807077884674
3.4722931385040283,39.309669494628906,29.674579620361328,-6.121374130249023,0.4547640085220337,7.7525482177734375,0.00819284375756979,0.008855199441313744,0.015793180093169212
3.441756248474121,39.31808853149414,29.645179748535156,-6.0809807777404785,0.4541592299938202,7.782949447631836,-0.008229538798332214,0.01127682626247406,-0.01433789823204279
3.389065742492676,39.32463836669922,29.593666076660156,-6.031623840332031,0.43994542956352234,7.761110305786133,-0.024721773341298103,0.009216554462909698,-0.03977865353226662
3.331909418106079,39.328670501708984,29.541019439697266,-5.990165710449219,0.3720618188381195,7.740578651428223,-0.031173601746559143,0.009335764683783054,-0.045728687196969986
3.3077855110168457,39.33846664428711,29.517301559448242,-5.9733076095581055,0.30063366889953613,7.721401691436768,-0.015549734234809875,0.019538218155503273,-0.02680458128452301
3.324083089828491,39.35407638549805,29.528676986694336,-5.945713996887207,0.2912396192550659,7.6697096824646,-0.005864352453500032,0.022372419014573097,-0.004975870251655579
3.3389055728912354,39.36735916137695,29.549062728881836,-5.966102123260498,0.33783477544784546,7.639920711517334,-0.012453648261725903,0.026392754167318344,0.004487298894673586
3.3331379890441895,39.37794494628906,29.558218002319336,-6.012881278991699,0.3773232698440552,7.5979204177856445,-0.019695984199643135,0.019635073840618134,0.002024509012699127
3.317931890487671,39.376285552978516,29.55426025390625,-6.003942966461182,0.4099552035331726,7.554362773895264,-0.020969660952687263,0.00811014324426651,-0.002497434848919511
3.298241138458252,39.367958068847656,29.540569305419922,-6.002806186676025,0.41021081805229187,7.558755397796631,-0.02399832010269165,0.0004680827260017395,-0.012880937196314335
3.271259307861328,39.361515045166016,29.519777297973633,-5.990912914276123,0.3872402012348175,7.569047927856445,-0.02711937017738819,-0.0006664544343948364,-0.016764553263783455
3.2595949172973633,39.36367416381836,29.512386322021484,-6.01560640335083,0.3667636215686798,7.566749095916748,-0.015124678611755371,0.008862280286848545,-0.0060699875466525555
3.2741329669952393,39.36993408203125,29.5235538482666,-6.003030300140381,0.363046258687973,7.5188188552856445,-0.005037710536271334,0.00679697934538126,0.003932603169232607
3.2971670627593994,39.36647415161133,29.542449951171875,-5.976431846618652,0.38606852293014526,7.5692667961120605,0.00313576334156096,0.0020643698517233133,0.01603011041879654
3.3147568702697754,39.36161422729492,29.56345558166504,-6.026031970977783,0.4230201244354248,7.563857555389404,-0.006755441427230835,0.002468563849106431,0.016887672245502472
3.3158881664276123,39.36213302612305,29.5722713470459,-6.049309730529785,0.467212975025177,7.587745666503906,-0.003926455974578857,0.0057699172757565975,0.011164882220327854
3.3169288635253906,39.36405563354492,29.570236206054688,-6.040831089019775,0.44365590810775757,7.578668117523193,-0.004831329453736544,0.004444830119609833,0.0030143188778311014
3.3031580448150635,39.35753631591797,29.56005096435547,-5.9931793212890625,0.4232405722141266,7.6112895011901855,-0.01791343279182911,-0.006241351831704378,-0.004702061414718628
3.279784917831421,39.34700393676758,29.55219268798828,-6.034152984619141,0.3846314549446106,7.633200168609619,-0.025071948766708374,-0.0036824496928602457,-0.001627206802368164
3.271352767944336,39.34374237060547,29.55717658996582,-6.050515174865723,0.4011039733886719,7.6088948249816895,-0.019124895334243774,-0.0032328071538358927,0.004158355761319399
3.273667335510254,39.33964920043945,29.563640594482422,-6.06329345703125,0.4431188702583313,7.61165189743042,-0.015111641027033329,-0.0024646520614624023,0.0035366045776754618
3.276266574859619,39.336997985839844,29.56479835510254,-6.057289123535156,0.43599939346313477,7.640026569366455,-0.006820261478424072,-0.000665709376335144,0.0026548283640295267
3.2848763465881348,39.33609390258789,29.56572151184082,-6.0644917488098145,0.43784379959106445,7.600128650665283,-0.0003453344979789108,0.0013070181012153625,0.002398528391495347
3.2922630310058594,39.333580017089844,29.56523895263672,-6.054647445678711,0.429331511259079,7.630279064178467,0.0008532778592780232,-0.0017654154216870666,9.406360186403617e-05
3.292858600616455,39.32663345336914,29.560075759887695,-6.068910598754883,0.3855937123298645,7.644438743591309,-0.0005211681709624827,-0.004776940681040287,-0.0037733472418040037
3.2940139770507812,39.32207107543945,29.556697845458984,-6.069014072418213,0.36696377396583557,7.674063205718994,0.0010618941159918904,-0.0005744397058151662,-3.6135315895080566e-05
3.3106002807617188,39.32559585571289,29.57012939453125,-6.067765712738037,0.3434026837348938,7.661756992340088,0.006454253103584051,0.007647463120520115,0.014189445413649082
3.3370115756988525,39.32990264892578,29.594715118408203,-6.014928817749023,0.3585045337677002,7.632687568664551,0.007453747093677521,0.005844794679433107,0.018692204728722572
3.341484308242798,39.327880859375,29.604387283325195,-6.01365327835083,0.3548086881637573,7.637234210968018,-0.009918213821947575,0.0037452206015586853,0.00893119815737009
3.318282127380371,39.32735824584961,29.596548080444336,-6.029581069946289,0.36139971017837524,7.646317958831787,-0.0204965490847826,0.0052573163993656635,-0.0005189329385757446
3.2982704639434814,39.33242416381836,29.58580207824707,-6.05772066116333,0.40576812624931335,7.620303153991699,-0.018459554761648178,0.01120548602193594,-0.0053532421588897705
3.292811393737793,39.336936950683594,29.578121185302734,-6.0262603759765625,0.4085782468318939,7.588459491729736,-0.009083003737032413,0.006026961840689182,-0.005767122842371464
3.297030210494995,39.33161544799805,29.57331657409668,-6.02026891708374,0.388638436794281,7.585659027099609,-0.0027127566281706095,0.00023599714040756226,-0.0053234403021633625
3.298670530319214,39.32301330566406,29.569421768188477,-6.024531364440918,0.3695177733898163,7.601253509521484,-0.0052150338888168335,-0.00480413343757391,-0.004620105493813753
3.2926433086395264,39.31399154663086,29.56818389892578,-6.023684024810791,0.36329326033592224,7.618890762329102,-0.01265146117657423,-0.006041304208338261,-0.00126622652169317
3.282768726348877,39.31147003173828,29.570310592651367,-6.04317569732666,0.39743977785110474,7.601977825164795,-0.018142161890864372,0.001769326627254486,-2.7567148208618164e-05
3.2808010578155518,39.31743621826172,29.576614379882812,-6.046679496765137,0.4152580499649048,7.589540004730225,-0.010911376215517521,0.007796845398843288,0.006868504453450441
3.2941927909851074,39.32206344604492,29.59005355834961,-6.005678176879883,0.4348190128803253,7.582428932189941,-0.004712120164185762,0.00783186499029398,0.010964460670948029
3.303880453109741,39.318359375,29.597156524658203,-6.006192207336426,0.4571145474910736,7.573793888092041,-0.003153086407110095,-0.0012218952178955078,0.006069058086723089
3.305565595626831,39.306861877441406,29.594257354736328,-6.010758876800537,0.44047507643699646,7.622295379638672,-0.001417100545950234,-0.006433576345443726,0.0023385509848594666
3.311044692993164,39.296104431152344,29.59585189819336,-6.012653350830078,0.4137575030326843,7.613611221313477,4.600733518600464e-05,-0.00862367544323206,0.007176585495471954
3.3186607360839844,39.28461837768555,29.602245330810547,-6.0174407958984375,0.4060736298561096,7.623383522033691,-0.0012591482372954488,-0.012554229237139225,0.005146674811840057
3.313802719116211,39.27531814575195,29.60210418701172,-6.02553129196167,0.3560043275356293,7.665205955505371,-0.013009087182581425,-0.007455050945281982,0.0029580669943243265
3.297266721725464,39.27540588378906,29.601606369018555,-6.0353169441223145,0.3694097101688385,7.648284912109375,-0.022579358890652657,-0.00021606683731079102,0.0017171725630760193
3.2858195304870605,39.27867126464844,29.604448318481445,-6.0496134757995605,0.3875085711479187,7.658208847045898,-0.01953691430389881,0.0035064294934272766,0.004942901898175478
3.298999786376953,39.282833099365234,29.617490768432617,-6.078615188598633,0.42194506525993347,7.667778968811035,-0.0004436821036506444,0.00935476366430521,0.014153309166431427
3.3294520378112793,39.28889465332031,29.634227752685547,-6.08750057220459,0.46070224046707153,7.646232604980469,0.009565615095198154,0.010842271149158478,0.012953394092619419
3.3369057178497314,39.28939437866211,29.630245208740234,-6.071826934814453,0.44910353422164917,7.64311408996582,0.0013971702428534627,0.003939308226108551,-0.0040102750062942505
3.315642833709717,39.282535552978516,29.605199813842773,-6.0645928382873535,0.39954623579978943,7.651096343994141,-0.007265806198120117,-0.002172962063923478,-0.01592114567756653
3.291022300720215,39.27716827392578,29.584091186523438,-6.0370774269104,0.3703418970108032,7.671963214874268,-0.01698211021721363,-3.315508729428984e-05,-0.01583285629749298
3.2694270610809326,39.277347564697266,29.57440185546875,-6.034879207611084,0.3793647885322571,7.6764397621154785,-0.023257361724972725,0.0022767111659049988,-0.013000146485865116
3.258528470993042,39.27600860595703,29.57447052001953,-6.031033515930176,0.34046655893325806,7.695158004760742,-0.018814951181411743,0.00023897738719824702,-0.0023998322430998087
3.265855073928833,39.27347946166992,29.589553833007812,-6.048784255981445,0.3560143709182739,7.718896865844727,-0.014296920038759708,0.003689713776111603,0.010193699039518833
3.2715954780578613,39.273746490478516,29.604530334472656,-6.072845458984375,0.40294861793518066,7.738253593444824,-0.01701153814792633,0.0030530616641044617,0.007794984150677919
3.25305438041687,39.27268600463867,29.599035263061523,-6.1272101402282715,0.42320165038108826,7.731103897094727,-0.029540810734033585,0.003304891986772418,-0.004706160165369511
3.2185282707214355,39.2764892578125,29.5810546875,-6.15080451965332,0.3989773392677307,7.742825031280518,-0.03383234515786171,0.009908715263009071,-0.011941047385334969
3.1932523250579834,39.28976821899414,29.56634521484375,-6.168972492218018,0.40178877115249634,7.715810775756836,-0.029527029022574425,0.02035815268754959,-0.013701247982680798
3.1783106327056885,39.30684280395508,29.554683685302734,-6.141304016113281,0.4070017337799072,7.663676738739014,-0.02346150577068329,0.023350678384304047,-0.01541078370064497
3.169092893600464,39.32192611694336,29.5456600189209,-6.110149383544922,0.40518999099731445,7.6634368896484375,-0.01815222203731537,0.02752896584570408,-0.011707842350006104
3.1683695316314697,39.33900833129883,29.547269821166992,-6.077269554138184,0.3921343982219696,7.6376447677612305,-0.014322251081466675,0.030636975541710854,-0.00296533084474504
3.167741298675537,39.35260772705078,29.549829483032227,-6.02965784072876,0.39712101221084595,7.615681171417236,-0.013723226264119148,0.025702083483338356,-0.006405264139175415
3.1568281650543213,39.3623046875,29.54144287109375,-6.018222332000732,0.3935990333557129,7.635453224182129,-0.01634545624256134,0.02618487924337387,-0.008581952191889286
3.153571128845215,39.378334045410156,29.54140853881836,-6.027099609375,0.3752480149269104,7.608041763305664,-0.009008868597447872,0.03235023468732834,0.0008085743174888194
3.1745975017547607,39.39582061767578,29.560365676879883,-5.987767696380615,0.37450677156448364,7.553173542022705,0.0024097042623907328,0.03068838268518448,0.014662183821201324
3.2059175968170166,39.40887451171875,29.586048126220703,-5.954493999481201,0.3701113164424896,7.561676025390625,0.008834714069962502,0.03132019564509392,0.019651468843221664
3.2188870906829834,39.422607421875,29.596546173095703,-5.944746971130371,0.35462629795074463,7.521444320678711,-0.001369044417515397,0.029058944433927536,0.007992426864802837
3.1987931728363037,39.43199157714844,29.581953048706055,-5.939884662628174,0.3731946349143982,7.514434814453125,-0.014664235524833202,0.022500567138195038,-0.008675084449350834
3.1725525856018066,39.4361686706543,29.560590744018555,-5.951807498931885,0.3644935190677643,7.483304977416992,-0.014793873764574528,0.017212141305208206,-0.012258067727088928
3.178128480911255,39.43687057495117,29.560365676879883,-5.901247024536133,0.3495529294013977,7.503798484802246,0.004164688289165497,0.011517294682562351,0.003415904939174652
3.2228145599365234,39.435970306396484,29.592594146728516,-5.909342288970947,0.34066805243492126,7.517268657684326,0.01736599951982498,0.011577272787690163,0.028000591322779655
3.2674572467803955,39.43128204345703,29.633277893066406,-5.896181106567383,0.37076541781425476,7.48905086517334,0.013692493550479412,-7.450580596923828e-05,0.030840007588267326
3.274603843688965,39.417205810546875,29.647836685180664,-5.936183929443359,0.3770539164543152,7.542529582977295,-0.0059027234092354774,-0.006712974514812231,0.018358418717980385
3.253221035003662,39.407039642333984,29.643564224243164,-6.002150535583496,0.3801543116569519,7.556168556213379,-0.01890510320663452,-0.006322936620563269,0.007940642535686493
3.2432992458343506,39.402198791503906,29.642669677734375,-6.011520862579346,0.3993319869041443,7.55834436416626,-0.009240955114364624,-0.0038243834860622883,0.009912067092955112
3.2685070037841797,39.394325256347656,29.658357620239258,-6.002183437347412,0.3975050151348114,7.584194660186768,0.011031889356672764,-0.009928271174430847,0.020148420706391335
3.3003013134002686,39.37977600097656,29.68039894104004,-6.0030083656311035,0.38003578782081604,7.6118245124816895,0.0048777093179523945,-0.012443587183952332,0.021160580217838287
3.300746202468872,39.36695861816406,29.691272735595703,-6.015024185180664,0.3807699680328369,7.629360198974609,-0.011009723879396915,-0.013885647058486938,0.015111454762518406
3.282041311264038,39.35601043701172,29.690610885620117,-6.0825629234313965,0.3897842466831207,7.636676788330078,-0.02192780375480652,-0.012569501996040344,0.006454624701291323
3.2714333534240723,39.34858703613281,29.689868927001953,-6.099438667297363,0.39270728826522827,7.658895969390869,-0.012683498673141003,-0.009201841428875923,0.008629824034869671
3.2887558937072754,39.34410095214844,29.703346252441406,-6.105682849884033,0.4063887894153595,7.626737594604492,0.00018049032951239496,-0.00500604510307312,0.016635842621326447
3.314305305480957,39.3378791809082,29.721202850341797,-6.090385437011719,0.44501012563705444,7.623974800109863,0.006066076923161745,-0.008538365364074707,0.016902947798371315
3.32216477394104,39.329933166503906,29.72381591796875,-6.088928699493408,0.4720883369445801,7.649288177490234,-0.0009622425423003733,-0.004979223478585482,0.004269741475582123
3.311537742614746,39.328155517578125,29.70940399169922,-6.111246109008789,0.471462219953537,7.6596527099609375,-0.0014893714105710387,-0.002653151750564575,-0.006400795187801123
3.3024861812591553,39.32861328125,29.692564010620117,-6.128357410430908,0.47424453496932983,7.647040367126465,-0.0025760382413864136,0.0022804366890341043,-0.01185834500938654
3.284315824508667,39.32880783081055,29.67176628112793,-6.122766971588135,0.46407878398895264,7.624342918395996,-0.013557448983192444,-0.001063197967596352,-0.02239830791950226
3.2543094158172607,39.32673263549805,29.64747428894043,-6.13709831237793,0.4314987361431122,7.658422946929932,-0.02046637423336506,0.0029871242586523294,-0.021810084581375122
3.2440474033355713,39.328453063964844,29.640600204467773,-6.115689277648926,0.4180934429168701,7.6271185874938965,-0.00935234222561121,0.003551878035068512,-0.009833277203142643
3.2629740238189697,39.32738494873047,29.65079116821289,-6.117982387542725,0.4378112852573395,7.674211502075195,0.0046754260547459126,0.0034617260098457336,0.0020796433091163635
3.286771059036255,39.32579040527344,29.65888786315918,-6.0925140380859375,0.4617106318473816,7.709263324737549,0.01260172575712204,0.0030750411096960306,-0.0006668269634246826
3.278607130050659,39.3255729675293,29.637672424316406,-6.081111907958984,0.44243642687797546,7.74440860748291,-0.004684552550315857,0.003468431532382965,-0.025643037632107735
3.2280640602111816,39.33549118041992,29.58449935913086,-6.0879130363464355,0.3858596682548523,7.79487943649292,-0.018087025731801987,0.018001163378357887,-0.04748441278934479
3.1799731254577637,39.356502532958984,29.5340633392334,-6.0680389404296875,0.30074581503868103,7.73940372467041,-0.02068430371582508,0.023455731570720673,-0.048002973198890686
3.173863172531128,39.36878204345703,29.521108627319336,-5.938272953033447,0.22648829221725464,7.693912982940674,0.0003123655333183706,0.020142460241913795,-0.0179290771484375
3.2108101844787598,39.37254333496094,29.55094337463379,-5.961346626281738,0.22024421393871307,7.664366245269775,0.0045409416779875755,0.017312727868556976,0.009945220313966274
3.2375667095184326,39.36764144897461,29.586883544921875,-5.929568767547607,0.23071865737438202,7.626509666442871,-0.0032171609345823526,0.0022454182617366314,0.02124328352510929
3.234691619873047,39.355228424072266,29.602008819580078,-5.970980167388916,0.285026490688324,7.621662139892578,-0.019852446392178535,-0.00013299286365509033,0.010517425835132599
3.207629442214966,39.35582733154297,29.59445571899414,-6.018605709075928,0.31172841787338257,7.61710262298584,-0.02808086760342121,0.008127652108669281,0.0007146970019675791
3.1931097507476807,39.36566925048828,29.590662002563477,-6.01051139831543,0.3658125102519989,7.5605316162109375,-0.018753111362457275,0.01387316919863224,0.003970973659306765
3.2020599842071533,39.375694274902344,29.599523544311523,-5.977475643157959,0.4027688503265381,7.537473678588867,-0.009358302690088749,0.017665140330791473,0.0079521918669343
3.2123990058898926,39.3850212097168,29.609621047973633,-5.973071098327637,0.3948421776294708,7.492547512054443,-0.00835172738879919,0.01852903515100479,0.008933430537581444
3.2109439373016357,39.38878631591797,29.615781784057617,-5.973818778991699,0.40064436197280884,7.504934310913086,-0.016204267740249634,0.011466632597148418,0.0071855271235108376
3.2027790546417236,39.386558532714844,29.621768951416016,-6.013167858123779,0.41084885597229004,7.540134906768799,-0.018851831555366516,0.008948706090450287,0.010258146561682224
3.208423376083374,39.38713836669922,29.63742446899414,-6.055665016174316,0.43561655282974243,7.566576957702637,-0.010690093040466309,0.010027551092207432,0.018214993178844452
3.220407009124756,39.38669967651367,29.657190322875977,-6.061047554016113,0.472690224647522,7.5717291831970215,-0.014974179677665234,0.004955568350851536,0.01892838627099991
3.210249185562134,39.37553405761719,29.664474487304688,-6.070311546325684,0.5286161303520203,7.559260845184326,-0.027364498004317284,-0.008557364344596863,0.010417590849101543
3.18375301361084,39.35701370239258,29.654083251953125,-6.077685356140137,0.569584846496582,7.60413122177124,-0.028230994939804077,-0.014262646436691284,-0.0034701081458479166
3.170109510421753,39.34707260131836,29.639291763305664,-6.111907958984375,0.5355217456817627,7.655139923095703,-0.012481585144996643,-0.007424504030495882,-0.004881247878074646
3.1854488849639893,39.35053634643555,29.63935661315918,-6.096988677978516,0.49231937527656555,7.66741418838501,0.005007348954677582,0.004516356159001589,0.0013751910300925374
3.2148756980895996,39.36172103881836,29.65420913696289,-6.077525615692139,0.4154641628265381,7.695970058441162,0.011478550732135773,0.013975243084132671,0.012858398258686066
3.2393076419830322,39.37592697143555,29.674755096435547,-6.0693206787109375,0.4019719064235687,7.666506767272949,0.007485412526875734,0.022159332409501076,0.014969520270824432
3.239370822906494,39.390968322753906,29.679279327392578,-6.103163719177246,0.3978175222873688,7.631717681884766,-0.006855652201920748,0.0237220898270607,0.002685003215447068
3.233370780944824,39.39885330200195,29.673763275146484,-6.08574914932251,0.3367893099784851,7.602939128875732,0.0040194024331867695,0.017061643302440643,0.004270859062671661
3.2577285766601562,39.398128509521484,29.684295654296875,-6.036453723907471,0.33720120787620544,7.591582298278809,0.01402292586863041,0.011547469533979893,0.012872926890850067
3.275442600250244,39.39390563964844,29.69189453125,-6.020245552062988,0.3290780484676361,7.572430610656738,0.006580911576747894,0.004084967076778412,0.0022301452700048685
3.2622573375701904,39.390106201171875,29.672882080078125,-6.024468898773193,0.33155176043510437,7.5905232429504395,-0.00042505565215833485,0.004719942808151245,-0.014388936571776867
3.2434895038604736,39.39813995361328,29.648235321044922,-6.004835605621338,0.2992762327194214,7.621474742889404,-0.0043723732233047485,0.016780013218522072,-0.01716129668056965
3.2317211627960205,39.413352966308594,29.634883880615234,-5.971323490142822,0.29519346356391907,7.564714431762695,-0.007693097926676273,0.0188021007925272,-0.016483664512634277
3.2131383419036865,39.41566848754883,29.61804962158203,-5.943531513214111,0.3014847934246063,7.532961845397949,-0.01632012613117695,0.006113388109952211,-0.023366138339042664
3.1822092533111572,39.4050178527832,29.59465980529785,-5.952857494354248,0.2652013301849365,7.568269729614258,-0.025315582752227783,-0.002263859147205949,-0.023345649242401123
3.1586081981658936,39.3929328918457,29.586666107177734,-5.949179172515869,0.2653188109397888,7.560589790344238,-0.029167160391807556,-0.00785291288048029,-0.009410829283297062
3.150944232940674,39.37831497192383,29.59784698486328,-5.973191738128662,0.2871362864971161,7.571061134338379,-0.02772882767021656,-0.013652071356773376,0.002760998671874404
3.1590709686279297,39.3653450012207,29.619327545166016,-5.997664451599121,0.3084268271923065,7.619676113128662,-0.016840549185872078,-0.009810552932322025,0.018255598843097687
3.187614917755127,39.36210250854492,29.65340232849121,-6.011177062988281,0.3637067973613739,7.609604835510254,-0.0045832241885364056,-0.0014923512935638428,0.03097485937178135
3.211270809173584,39.358604431152344,29.679433822631836,-6.024819374084473,0.4596102833747864,7.608312606811523,-0.0055570160038769245,-0.007002800703048706,0.022925250232219696
3.207322359085083,39.34557342529297,29.67990493774414,-6.065334320068359,0.4792218506336212,7.633867263793945,-0.01223832368850708,-0.01174882147461176,0.010201521217823029
3.200356960296631,39.33470916748047,29.677854537963867,-6.11000919342041,0.47622019052505493,7.673344135284424,-0.009024889208376408,-0.008899346925318241,0.01128222793340683
3.206369400024414,39.32689666748047,29.6834659576416,-6.163732528686523,0.47497838735580444,7.677818298339844,-0.0047478824853897095,-0.010573492385447025,0.007474609650671482
3.211798667907715,39.321468353271484,29.682662963867188,-6.216385364532471,0.45804792642593384,7.719270706176758,0.0002713874273467809,-0.002390146255493164,0.003468431532382965
3.2300682067871094,39.327274322509766,29.690614700317383,-6.179516792297363,0.42987939715385437,7.735179424285889,0.012231807224452496,0.007956288754940033,0.014377201907336712
3.255444049835205,39.33714294433594,29.70932960510254,-6.188134670257568,0.4744066298007965,7.680840969085693,0.005760604050010443,0.013696216978132725,0.013582222163677216
3.2561748027801514,39.34690475463867,29.708471298217773,-6.160982131958008,0.5028855204582214,7.694519996643066,0.0028429552912712097,0.016671979799866676,-0.0011138617992401123
3.252681255340576,39.36476516723633,29.697208404541016,-6.1784820556640625,0.4356335401535034,7.738271236419678,0.003405101830139756,0.0327160581946373,-0.0020295381546020508
3.2628960609436035,39.39421081542969,29.705169677734375,-6.080453395843506,0.4110461473464966,7.656156063079834,0.0025743620935827494,0.04132520407438278,0.008924865163862705
3.265209436416626,39.409339904785156,29.714277267456055,-6.052312850952148,0.4224473536014557,7.583443641662598,-0.01110471785068512,0.023859180510044098,2.0675362975453027e-05
3.2329964637756348,39.408199310302734,29.690528869628906,-6.018961429595947,0.44453325867652893,7.627530574798584,-0.022121524438261986,0.019150786101818085,-0.022738805040717125
3.1995584964752197,39.42451095581055,29.654062271118164,-6.073843479156494,0.369327574968338,7.650872230529785,-0.012836235575377941,0.035796500742435455,-0.027712807059288025
3.206449031829834,39.455360412597656,29.646610260009766,-5.952429294586182,0.30988067388534546,7.554225444793701,0.005113520659506321,0.042028915137052536,-0.007860362529754639
3.230348825454712,39.46623992919922,29.661951065063477,-5.9014506340026855,0.27017706632614136,7.464052200317383,0.0008741393685340881,0.019334815442562103,-7.636845839442685e-05
3.2165517807006836,39.445064544677734,29.657201766967773,-5.880943775177002,0.28226691484451294,7.478585243225098,-0.020437316969037056,-0.009085610508918762,-0.01186318788677454
3.166677713394165,39.41685104370117,29.623544692993164,-5.889557838439941,0.32694271206855774,7.551667213439941,-0.0342685729265213,-0.017770009115338326,-0.030558934435248375
3.116154432296753,39.40955352783203,29.578359603881836,-5.946685791015625,0.35688790678977966,7.602902412414551,-0.03010183945298195,-0.001842156401835382,-0.041213639080524445
3.1071577072143555,39.42790985107422,29.562543869018555,-5.976366996765137,0.3102775812149048,7.611159801483154,-0.008175521157681942,0.0204062070697546,-0.01213475875556469
3.1694624423980713,39.452945709228516,29.61449432373047,-5.939993381500244,0.2866326570510864,7.5507402420043945,0.02340618707239628,0.030783377587795258,0.03868360444903374
3.2522010803222656,39.45198440551758,29.69101333618164,-5.952070713043213,0.35778799653053284,7.444445610046387,0.022192856296896935,-0.000717863324098289,0.05244109034538269
3.277949810028076,39.41403579711914,29.724437713623047,-6.016651153564453,0.4090907871723175,7.569427967071533,0.003335066605359316,-0.026493152603507042,0.03523100167512894
3.2714574337005615,39.388832092285156,29.72882652282715,-6.109219551086426,0.45510512590408325,7.700144290924072,-0.0031057752203196287,-0.012250247411429882,0.025861527770757675
3.2769577503204346,39.39375686645508,29.73482894897461,-6.134052753448486,0.47349369525909424,7.671268463134766,0.003585778409615159,0.00038351857801899314,0.017189422622323036
3.2782373428344727,39.39180374145508,29.72498321533203,-6.085795879364014,0.4564855098724365,7.602185249328613,0.0006338581442832947,-0.011221320368349552,-0.004163757432252169
3.2474961280822754,39.37099075317383,29.690649032592773,-6.083393573760986,0.41470491886138916,7.647524833679199,-0.018508732318878174,-0.021727384999394417,-0.022592395544052124
3.204603672027588,39.35264205932617,29.65906524658203,-6.109487056732178,0.3787299394607544,7.675565719604492,-0.02658628113567829,-0.018272550776600838,-0.022077929228544235
3.1979103088378906,39.34950256347656,29.66179084777832,-6.121733665466309,0.3553590476512909,7.693538188934326,-0.012432040646672249,-0.0031210489105433226,0.0036822636611759663
3.238123893737793,39.355369567871094,29.70425033569336,-6.113387107849121,0.39665237069129944,7.6497087478637695,0.00322144478559494,0.0038770961109548807,0.031091460958123207
3.2734668254852295,39.35146713256836,29.740955352783203,-6.184295177459717,0.4535607099533081,7.639326095581055,-0.0004034489393234253,-0.0053994362242519855,0.022651441395282745
3.278331995010376,39.3444938659668,29.74098014831543,-6.064511299133301,0.4854438006877899,7.62927770614624,0.006265752017498016,0.0027118250727653503,0.009410268627107143
3.27211332321167,39.35176467895508,29.721899032592773,-6.128295421600342,0.47619327902793884,7.613244533538818,-0.002242997521534562,0.00868532806634903,-0.012972206808626652
3.2572505474090576,39.36308670043945,29.69386100769043,-6.055961608886719,0.4270777106285095,7.641392707824707,0.007743947207927704,0.017170796170830727,-0.016294794157147408
3.2721190452575684,39.36894607543945,29.687034606933594,-6.023118495941162,0.3893594741821289,7.620072364807129,0.01767520047724247,0.006769783794879913,-0.00626370357349515
3.302401542663574,39.3640251159668,29.70094108581543,-6.0102128982543945,0.36775368452072144,7.643383979797363,0.02167094498872757,0.008506141602993011,0.009413995780050755
3.3349132537841797,39.36483383178711,29.726987838745117,-6.004894733428955,0.3728698492050171,7.625062942504883,0.018066726624965668,0.007295795250684023,0.019559450447559357
3.355203628540039,39.36101150512695,29.747011184692383,-5.995030879974365,0.40608668327331543,7.61192512512207,0.011010282672941685,0.0017279759049415588,0.017441995441913605
3.3577375411987305,39.356964111328125,29.753564834594727,-5.994722843170166,0.41952645778656006,7.6159772872924805,-0.0015974047128111124,0.0046754260547459126,0.011560134589672089
3.34696364402771,39.3604621887207,29.754497528076172,-5.980082035064697,0.4637996554374695,7.591429233551025,-0.013072789646685123,0.008850731886923313,0.006994791328907013
3.332270622253418,39.36418914794922,29.748247146606445,-6.01789665222168,0.4732385277748108,7.56771993637085,-0.013091416098177433,0.007502920925617218,-0.004014373291283846
3.323781728744507,39.36279296875,29.7313289642334,-5.978949546813965,0.478218138217926,7.584196090698242,-0.0019356609554961324,0.003236718475818634,-0.01143328845500946
3.3195042610168457,39.35633087158203,29.714195251464844,-5.978691577911377,0.4089175760746002,7.602403163909912,-0.005536526441574097,-0.002676621312275529,-0.014795735478401184
3.3079333305358887,39.34587097167969,29.702884674072266,-5.966493129730225,0.3599974513053894,7.61652135848999,-0.009948760271072388,-0.007512792944908142,-0.010621176101267338
3.2987782955169678,39.33401870727539,29.699804306030273,-5.969484806060791,0.3149666488170624,7.610107898712158,-0.014010818675160408,-0.010362640954554081,-0.006937981583178043
3.286728858947754,39.3211784362793,29.69716453552246,-5.974267959594727,0.31862935423851013,7.614871025085449,-0.019901249557733536,-0.014032426290214062,-0.005749241914600134
3.279351234436035,39.30990982055664,29.700231552124023,-5.9833550453186035,0.33300793170928955,7.632532596588135,-0.0162124652415514,-0.01001395471394062,0.004288740921765566
3.2945520877838135,39.30735778808594,29.720930099487305,-6.027271747589111,0.37499502301216125,7.6071319580078125,-0.005852058529853821,-0.001111254096031189,0.01833532191812992
3.3130006790161133,39.30466079711914,29.74003791809082,-6.076815605163574,0.40630465745925903,7.560579299926758,-0.005127490498125553,-0.0063925995491445065,0.01222510077059269
3.30019474029541,39.290992736816406,29.72490882873535,-6.139014720916748,0.38953888416290283,7.568455696105957,-0.012163445353507996,-0.013991075567901134,-0.012696164660155773
3.2644689083099365,39.27693176269531,29.68745231628418,-6.139049530029297,0.34924423694610596,7.599548816680908,-0.019741058349609375,-0.014077500440180302,-0.023965910077095032
3.2265520095825195,39.26771926879883,29.657535552978516,-6.166652202606201,0.32811692357063293,7.564353942871094,-0.03133825957775116,-0.01252591609954834,-0.027973202988505363
3.1974048614501953,39.26121139526367,29.640033721923828,-6.164514541625977,0.33823511004447937,7.566990852355957,-0.02574547939002514,-0.008570773527026176,-0.018731502816081047
3.201406717300415,39.26018524169922,29.646018981933594,-6.139734268188477,0.37459897994995117,7.5897932052612305,-0.011013821698725224,0.00038836151361465454,-0.0008232892723754048
3.222622871398926,39.26568603515625,29.66604232788086,-6.1152777671813965,0.41277435421943665,7.596634864807129,-0.005614012945443392,0.007808394730091095,0.008830615319311619
3.224212884902954,39.269317626953125,29.672426223754883,-6.0807294845581055,0.4503893256187439,7.613012313842773,-0.015461817383766174,0.005029328167438507,-0.0011488796444609761
3.2040889263153076,39.27052688598633,29.657583236694336,-6.081679344177246,0.4449644982814789,7.682150840759277,-0.014699996449053288,0.00940132699906826,-0.00988729391247034
3.2031173706054688,39.282474517822266,29.646604537963867,-6.031991004943848,0.44230249524116516,7.701187610626221,0.0038640580605715513,0.02127644047141075,-0.007005036808550358
3.221930980682373,39.29827880859375,29.646053314208984,-5.996806621551514,0.419545441865921,7.672702312469482,0.009057856164872646,0.02125929668545723,-0.004927441012114286
3.2246670722961426,39.297706604003906,29.6396541595459,-5.930603504180908,0.3937426507472992,7.653561115264893,0.0008353963494300842,0.004223175346851349,-0.010420755483210087
3.211005449295044,39.28197479248047,29.627025604248047,-5.948051929473877,0.3722372353076935,7.6793012619018555,-0.007501989137381315,-0.005641579627990723,-0.009750948287546635
3.2205967903137207,39.27611541748047,29.63505744934082,-5.96840238571167,0.36819586157798767,7.705113410949707,0.010392257012426853,0.005994178354740143,0.010952912271022797
3.2719902992248535,39.28500747680664,29.67133331298828,-5.9789886474609375,0.37091875076293945,7.64180850982666,0.02590436488389969,0.012387522496283054,0.027586709707975388
3.330528974533081,39.289615631103516,29.709917068481445,-5.957916736602783,0.39257392287254333,7.601987361907959,0.03822017088532448,0.010396725498139858,0.0351661816239357
3.3852696418762207,39.28604507446289,29.741416931152344,-5.950167179107666,0.4181901514530182,7.571863174438477,0.04261638969182968,0.00403206842020154,0.035490281879901886
3.4289517402648926,39.27919387817383,29.764184951782227,-5.967092990875244,0.44680261611938477,7.589360237121582,0.040872957557439804,0.002001039683818817,0.031326889991760254
3.4579310417175293,39.275203704833984,29.77819061279297,-5.975452423095703,0.43496307730674744,7.644565582275391,0.031042661517858505,0.002008863026276231,0.023694898933172226
3.4588348865509033,39.27299499511719,29.77886390686035,-5.994453430175781,0.413027822971344,7.636847972869873,0.0048486520536243916,0.0020025300327688456,0.00899340957403183
3.427312135696411,39.26921081542969,29.76271629333496,-5.993444442749023,0.44595178961753845,7.626500606536865,-0.016792865470051765,-0.002086162567138672,-0.006448850501328707
3.3767902851104736,39.255699157714844,29.72956657409668,-6.085477352142334,0.44078701734542847,7.605147361755371,-0.0357210636138916,-0.016291441395878792,-0.02766512520611286
3.3248677253723145,39.238529205322266,29.691043853759766,-6.078423976898193,0.46600043773651123,7.677467346191406,-0.03498159721493721,-0.012921914458274841,-0.028782712295651436
3.301152229309082,39.23319625854492,29.67136001586914,-6.1679606437683105,0.43701884150505066,7.678933620452881,-0.026235360652208328,-0.008394196629524231,-0.024681543931365013
3.2942323684692383,39.23567581176758,29.666261672973633,-6.170101642608643,0.42778831720352173,7.7689290046691895,-0.021004674956202507,0.005234219133853912,-0.01103766169399023
3.297755718231201,39.25461959838867,29.676536560058594,-6.1832451820373535,0.41679731011390686,7.764678955078125,-0.016279518604278564,0.025977009907364845,-0.001438707229681313
3.2901690006256104,39.27875900268555,29.674795150756836,-6.16818904876709,0.44616082310676575,7.742983818054199,-0.021862240508198738,0.026996992528438568,-0.014168399386107922
3.256442070007324,39.29399490356445,29.643909454345703,-6.173442840576172,0.4521234333515167,7.734985828399658,-0.02500154636800289,0.02895203046500683,-0.030206888914108276
3.2221486568450928,39.30845642089844,29.610645294189453,-6.15032958984375,0.4372863173484802,7.709679126739502,-0.025785718113183975,0.026506373658776283,-0.03004595637321472
3.203620672225952,39.3200798034668,29.593130111694336,-6.121578693389893,0.45427843928337097,7.703825950622559,-0.01805909350514412,0.02720300666987896,-0.02466813288629055
3.2083985805511475,39.33609390258789,29.58584213256836,-6.088189125061035,0.43516191840171814,7.643636226654053,0.0027997419238090515,0.03247317299246788,-0.016534700989723206
3.2283191680908203,39.35353088378906,29.58357048034668,-6.012826919555664,0.3831527829170227,7.591504096984863,0.010571443475782871,0.030759168788790703,-0.012720005586743355
3.2351431846618652,39.367313385009766,29.58100700378418,-5.953830718994141,0.3162574768066406,7.593270301818848,0.001099519431591034,0.03135111555457115,-0.008391961455345154
3.2300121784210205,39.3838996887207,29.584524154663086,-5.973840236663818,0.26649758219718933,7.56135892868042,-0.009235367178916931,0.03440473601222038,-0.0009931625099852681
3.2294046878814697,39.40214538574219,29.596616744995117,-5.994426250457764,0.29260966181755066,7.540892601013184,-0.009973720647394657,0.03551635891199112,0.0073553998954594135
3.235051393508911,39.414302825927734,29.610973358154297,-5.968326568603516,0.3529833257198334,7.473093032836914,-0.011127441190183163,0.027026424184441566,0.010018609464168549
3.2281556129455566,39.412681579589844,29.608640670776367,-5.959851264953613,0.4243857264518738,7.476434707641602,-0.014112891629338264,0.011340715922415257,-0.005387515760958195
3.19089412689209,39.40244674682617,29.571687698364258,-5.977296352386475,0.4219842553138733,7.500661373138428,-0.02693273313343525,0.0009043143363669515,-0.03309398889541626
3.1313693523406982,39.3955078125,29.512451171875,-5.9903154373168945,0.3812550902366638,7.505465984344482,-0.03128014877438545,-0.00021792948246002197,-0.05115792527794838
3.089078903198242,39.39346694946289,29.46674156188965,-5.945115089416504,0.3516184091567993,7.506303310394287,-0.02465546689927578,8.922072447603568e-05,-0.04308410733938217
3.0926971435546875,39.392051696777344,29.463376998901367,-5.948272228240967,0.2899971902370453,7.521428108215332,-0.0024333603214472532,0.002811663318425417,-0.012209641747176647
3.143249988555908,39.38505935668945,29.500612258911133,-5.950652599334717,0.28885096311569214,7.499199390411377,0.0189585629850626,-0.006304308772087097,0.02019498497247696
3.197267532348633,39.359893798828125,29.5412540435791,-5.9743547439575195,0.30041807889938354,7.503271102905273,0.0220885518938303,-0.025831911712884903,0.0250129085034132
3.2000911235809326,39.32516860961914,29.543928146362305,-5.998149871826172,0.3167153000831604,7.588714599609375,-0.006930530071258545,-0.03489553928375244,0.0024074686225503683
3.142446517944336,39.2955436706543,29.508358001708984,-6.050824165344238,0.31190699338912964,7.598570823669434,-0.03803521767258644,-0.039369985461235046,-0.02224557287991047
3.082911491394043,39.27346420288086,29.472625732421875,-6.025920867919922,0.3475070297718048,7.609752655029297,-0.03906264901161194,-0.030753018334507942,-0.021197276189923286
3.0679879188537598,39.261905670166016,29.469688415527344,-6.0175933837890625,0.3845590651035309,7.570114612579346,-0.027528781443834305,-0.023053592070937157,-0.0036746268160641193
3.0829601287841797,39.247318267822266,29.487323760986328,-6.052222728729248,0.39962247014045715,7.59894323348999,-0.01066848635673523,-0.025979802012443542,0.007928350009024143
3.1103744506835938,39.22887420654297,29.509750366210938,-6.0226922035217285,0.39309248328208923,7.677614688873291,0.0004498288326431066,-0.021686777472496033,0.02069864608347416
3.1335270404815674,39.219383239746094,29.532516479492188,-6.074970245361328,0.4106425344944,7.70241641998291,-0.0015906990738585591,-0.01323409378528595,0.01912470906972885
3.1314265727996826,39.22153854370117,29.532608032226562,-6.126145362854004,0.43999430537223816,7.735329627990723,-0.007506087888032198,0.0012265518307685852,0.0017704443307593465
3.111157178878784,39.23270034790039,29.51097297668457,-6.161502838134766,0.4315188527107239,7.729400634765625,-0.011375917121767998,0.009290313348174095,-0.012636558152735233
3.1040327548980713,39.24739456176758,29.49929428100586,-6.169981002807617,0.3658613860607147,7.7331414222717285,-0.001455843448638916,0.022622758522629738,-0.0024884939193725586
3.1348936557769775,39.26642608642578,29.523454666137695,-6.124075412750244,0.31518831849098206,7.683477401733398,0.011475570499897003,0.02748873271048069,0.020917320623993874
3.1695854663848877,39.27592086791992,29.559017181396484,-6.1068267822265625,0.3423628509044647,7.636363983154297,0.002568774623796344,0.02022888883948326,0.02391953580081463
3.1586873531341553,39.27367401123047,29.562379837036133,-6.124500274658203,0.3745863735675812,7.629665851593018,-0.019594652578234673,0.009518302045762539,0.0020431354641914368
3.1299643516540527,39.277099609375,29.544891357421875,-6.116279125213623,0.3934013545513153,7.695433616638184,-0.014421345666050911,0.021242542192339897,-0.0017538669053465128
3.1448864936828613,39.30597686767578,29.554636001586914,-6.082947731018066,0.4082846939563751,7.630740165710449,0.004324131179600954,0.04522521048784256,0.014450214803218842
3.175156593322754,39.33332443237305,29.573551177978516,-6.004115104675293,0.424533486366272,7.564930438995361,0.007403083611279726,0.03098379820585251,0.00694301025941968
3.1662817001342773,39.32698440551758,29.557859420776367,-5.966394424438477,0.41211870312690735,7.599654674530029,-0.00697895884513855,0.007925741374492645,-0.012784824706614017
3.135991096496582,39.32268524169922,29.53282356262207,-5.99599552154541,0.3716250956058502,7.711322784423828,-0.016592442989349365,0.019610488787293434,-0.01332014799118042
3.1354055404663086,39.3449592590332,29.538352966308594,-5.981234550476074,0.3780810832977295,7.590885639190674,-0.0033076852560043335,0.03348458930850029,0.006140582729130983
3.159472942352295,39.356468200683594,29.5583438873291,-5.996502876281738,0.39900749921798706,7.534979343414307,0.0008350239950232208,0.013588182628154755,0.006639400031417608
3.15842604637146,39.3400764465332,29.558046340942383,-5.993371486663818,0.42112353444099426,7.548949241638184,-0.011434778571128845,-0.00272504985332489,0.0009564683423377573
3.1517715454101562,39.32600402832031,29.559497833251953,-6.007080554962158,0.40946340560913086,7.596179962158203,-0.006731972098350525,-0.002174824709072709,0.009263120591640472
3.1703951358795166,39.32725143432617,29.578489303588867,-5.997781276702881,0.4517991542816162,7.554303169250488,0.0010041521163657308,0.00899340957403183,0.017450563609600067
3.201280355453491,39.332645416259766,29.602638244628906,-6.000328063964844,0.4746018052101135,7.56838846206665,0.013638474978506565,0.005993432365357876,0.024117713794112206
3.2352135181427,39.32564163208008,29.62465476989746,-6.023749828338623,0.5097362399101257,7.5661540031433105,0.01642909087240696,-0.0015810133190825582,0.02394597977399826
3.2567930221557617,39.31222152709961,29.633800506591797,-6.011245250701904,0.5427944660186768,7.616537094116211,0.018929876387119293,-0.00913031492382288,0.014070235192775726
3.2657270431518555,39.30217742919922,29.628171920776367,-6.046967029571533,0.5004240870475769,7.6828999519348145,0.013448487035930157,-0.004446133971214294,0.003537349868565798
3.272618055343628,39.306190490722656,29.624746322631836,-6.046067237854004,0.463704913854599,7.741734504699707,0.015410222113132477,0.008028932847082615,0.00577922910451889
3.2864933013916016,39.3162727355957,29.629899978637695,-6.025776386260986,0.44469428062438965,7.688675880432129,0.010677240788936615,0.011505745351314545,0.003915094304829836
3.2826547622680664,39.31999588012695,29.620407104492188,-6.078910827636719,0.4516903758049011,7.679490566253662,0.0026533380150794983,0.008271821774542332,-0.011092051863670349
3.2620654106140137,39.32072448730469,29.592567443847656,-6.12895393371582,0.4280340075492859,7.686622619628906,-0.0030409544706344604,0.008354521356523037,-0.022329391911625862
3.243680953979492,39.32502746582031,29.567445755004883,-6.139984607696533,0.3553801476955414,7.658238887786865,-0.004521384835243225,0.011511706747114658,-0.02281591296195984
3.231498956680298,39.330265045166016,29.551069259643555,-6.143942832946777,0.28254228830337524,7.621943950653076,-0.007566810119897127,0.010725297965109348,-0.02187862992286682
3.218825578689575,39.337982177734375,29.53875160217285,-6.1009979248046875,0.27589452266693115,7.672423362731934,-0.01133792195469141,0.019284896552562714,-0.018039347603917122
3.2000327110290527,39.357948303222656,29.524641036987305,-6.120161056518555,0.26540812849998474,7.602242946624756,-0.01926124282181263,0.031171929091215134,-0.024567920714616776
3.167158365249634,39.375816345214844,29.494464874267578,-6.078341007232666,0.28293702006340027,7.572018146514893,-0.021886082366108894,0.023011676967144012,-0.03559999540448189
3.1328649520874023,39.3780517578125,29.459449768066406,-6.0401434898376465,0.26338520646095276,7.5998759269714355,-0.024273624643683434,0.01543183159083128,-0.036099180579185486
3.1092443466186523,39.377685546875,29.43744659423828,-5.987555027008057,0.2519146800041199,7.580865383148193,-0.020304694771766663,0.01130420807749033,-0.02881847694516182
3.0978126525878906,39.37564468383789,29.428482055664062,-5.978311538696289,0.2539635896682739,7.550793647766113,-0.01979135163128376,0.005934201180934906,-0.01887008547782898
3.0902538299560547,39.37221145629883,29.42782211303711,-5.996983528137207,0.2528223991394043,7.524694442749023,-0.01874603144824505,0.0053511932492256165,-0.010215864516794682
3.0904479026794434,39.37168884277344,29.434551239013672,-6.007900238037109,0.31006234884262085,7.49434232711792,-0.013900920748710632,0.0061841681599617004,0.0007560477242805064
3.10137939453125,39.37196350097656,29.44888687133789,-5.99837589263916,0.3453564941883087,7.471235275268555,-0.007368624210357666,0.006662123370915651,0.008602626621723175
3.12290620803833,39.3662109375,29.467023849487305,-5.968311309814453,0.3495272994041443,7.442805290222168,0.0052129849791526794,-0.003143772715702653,0.01746211014688015
3.1670827865600586,39.34640121459961,29.501144409179688,-5.907522678375244,0.31248539686203003,7.4692158699035645,0.021048448979854584,-0.016180800274014473,0.039304234087467194
3.2306413650512695,39.317161560058594,29.559185028076172,-5.923151016235352,0.325840562582016,7.484461307525635,0.025163782760500908,-0.027555232867598534,0.059564605355262756
3.3070733547210693,39.282569885253906,29.631092071533203,-5.92781400680542,0.35663214325904846,7.553765296936035,0.04409756511449814,-0.03734566643834114,0.08043627440929413
3.3876137733459473,39.241310119628906,29.69678497314453,-5.926206111907959,0.4678879380226135,7.541858196258545,0.043367400765419006,-0.050925832241773605,0.07228422909975052
3.4233920574188232,39.20364761352539,29.721172332763672,-5.979537487030029,0.5210248827934265,7.647181510925293,0.030577369034290314,-0.044021014124155045,0.04526544362306595
3.428788900375366,39.181297302246094,29.719741821289062,-6.002017974853516,0.5069900155067444,7.671081066131592,0.018078647553920746,-0.03994405269622803,0.027717838063836098
3.430616855621338,39.16117858886719,29.72157859802246,-6.039964199066162,0.49543026089668274,7.688225746154785,0.007949584163725376,-0.03292597830295563,0.022383222356438637
3.4353907108306885,39.147804260253906,29.73193359375,-6.08224630355835,0.5107055306434631,7.697415351867676,0.0012977048754692078,-0.023419784381985664,0.02100970782339573
3.435534715652466,39.14069366455078,29.740928649902344,-6.176055431365967,0.5320645570755005,7.694836139678955,-0.00876598060131073,-0.015091524459421635,0.014550425112247467
3.423470973968506,39.13837814331055,29.737335205078125,-6.192239761352539,0.552114725112915,7.70209264755249,-0.012826920486986637,-0.0066217039711773396,0.002139247488230467
3.408522605895996,39.14277648925781,29.724987030029297,-6.194321155548096,0.535284161567688,7.696567535400391,-0.01422837469726801,0.0042283907532691956,-0.0044729565270245075
3.404127597808838,39.14661407470703,29.71730613708496,-6.13796329498291,0.4838829040527344,7.692134380340576,-0.003629178274422884,0.0012593345018103719,-0.0038940466474741697
3.4122376441955566,39.141971588134766,29.714874267578125,-6.110073089599609,0.4349428117275238,7.738236904144287,0.00040177255868911743,0.0006848946795798838,-0.0031147152185440063
3.4047436714172363,39.13949966430664,29.705141067504883,-6.092815399169922,0.41280341148376465,7.7567949295043945,-0.012229758314788342,0.0014981256099417806,-0.0133954007178545
3.3732800483703613,39.14128112792969,29.67972755432129,-6.080566883087158,0.39014849066734314,7.774085521697998,-0.020107628777623177,0.006285868585109711,-0.02398640103638172
3.3523507118225098,39.1549072265625,29.6591739654541,-6.051127910614014,0.3467961251735687,7.777247428894043,-0.011833010241389275,0.023381223902106285,-0.018309803679585457
3.355107069015503,39.176185607910156,29.657176971435547,-5.953627586364746,0.34208694100379944,7.7227396965026855,-0.007065386977046728,0.02586190029978752,-0.01029223296791315
3.3569934368133545,39.187049865722656,29.65983009338379,-5.953339099884033,0.3475581705570221,7.704313278198242,-0.010219961404800415,0.02270582690834999,-0.005237386096268892
3.3485615253448486,39.193077087402344,29.65892791748047,-5.966179847717285,0.3613430857658386,7.674740314483643,-0.01633576862514019,0.019712187349796295,-0.006627291906625032
3.3322436809539795,39.19623947143555,29.65201759338379,-5.966251850128174,0.35420534014701843,7.6471076011657715,-0.020553914830088615,0.0140434131026268,-0.007941946387290955
3.3183603286743164,39.1972770690918,29.647502899169922,-5.974904537200928,0.3748641610145569,7.622803211212158,-0.020803138613700867,0.013276749290525913,-0.0046059489250183105
3.3103907108306885,39.197792053222656,29.645708084106445,-5.9987053871154785,0.3754541575908661,7.574975490570068,-0.017446279525756836,0.007652305066585541,-0.005516782868653536
3.3085286617279053,39.1959114074707,29.64032745361328,-5.99879789352417,0.36626365780830383,7.583831310272217,-0.006444007623940706,0.00806320458650589,-0.00587925361469388
3.316675901412964,39.204044342041016,29.639516830444336,-6.012735366821289,0.32404932379722595,7.577228546142578,-0.0016480685444548726,0.019819475710392,-0.0012487173080444336
3.3264293670654297,39.216583251953125,29.648984909057617,-6.012643814086914,0.3020494282245636,7.537566184997559,-0.0039648269303143024,0.016988255083560944,0.007200427819043398
3.3328611850738525,39.21754837036133,29.66414451599121,-6.038904190063477,0.35471081733703613,7.510770797729492,-0.008922070264816284,0.011842139065265656,0.012242610566318035
3.335979700088501,39.214778900146484,29.679893493652344,-6.078902721405029,0.39180004596710205,7.565837383270264,-0.012687593698501587,0.007688440848141909,0.016786716878414154
3.3347666263580322,39.20956802368164,29.69516944885254,-6.086846351623535,0.44995513558387756,7.547661781311035,-0.020928680896759033,0.0023769212421029806,0.016937220469117165
3.322524070739746,39.19979476928711,29.702655792236328,-6.0904860496521,0.47546708583831787,7.563055992126465,-0.027128687128424644,-0.00504516065120697,0.011288563720881939
3.313816785812378,39.189720153808594,29.707231521606445,-6.085005283355713,0.5329946279525757,7.585831165313721,-0.019773097708821297,-0.0036690381821244955,0.013155674561858177
3.3178634643554688,39.18482971191406,29.712955474853516,-6.0616068840026855,0.5613856315612793,7.617048740386963,-0.012367592193186283,-0.0033523887395858765,0.006678514648228884
3.321471929550171,39.18321990966797,29.710725784301758,-6.045378684997559,0.5409826040267944,7.670281887054443,-0.004441290162503719,0.0027885662857443094,0.0039415438659489155
3.329939603805542,39.189186096191406,29.713563919067383,-6.0156097412109375,0.5286761522293091,7.695855140686035,-0.002079457277432084,0.010560639202594757,0.006240793038159609
3.3365631103515625,39.19584274291992,29.71700668334961,-6.0149617195129395,0.5241057872772217,7.660708427429199,-0.0004269183555152267,0.010183640755712986,0.0019663944840431213
3.3383142948150635,39.19721984863281,29.711254119873047,-6.040905475616455,0.5065707564353943,7.640005111694336,0.0018956140847876668,0.008416734635829926,-0.0033378603402525187
3.3455238342285156,39.200565338134766,29.70717430114746,-6.058067321777344,0.44008052349090576,7.630594253540039,0.008905495516955853,0.01341160573065281,-0.00027082866290584207
3.364168405532837,39.20941162109375,29.71271324157715,-6.089880466461182,0.4054166376590729,7.561944484710693,0.013547204434871674,0.01694243587553501,0.0037917867302894592
3.3788959980010986,39.21037673950195,29.71343994140625,-6.066098213195801,0.3686344623565674,7.539565086364746,0.014402161352336407,0.004320033360272646,-0.0029068440198898315
3.3898777961730957,39.20018005371094,29.707416534423828,-6.073721408843994,0.3524797856807709,7.596424102783203,0.019050205126404762,0.00041928142309188843,-4.842877751798369e-05
3.418100118637085,39.19639205932617,29.71588897705078,-6.048422813415527,0.2843499481678009,7.600726127624512,0.029429608955979347,0.004110671579837799,0.009235553443431854
3.462996244430542,39.19731521606445,29.73844337463379,-6.021072864532471,0.2470114529132843,7.624621868133545,0.03726911172270775,0.005791522562503815,0.021371806040406227
3.517038106918335,39.199710845947266,29.77922821044922,-5.949113368988037,0.19251076877117157,7.647915363311768,0.03571305423974991,0.011943839490413666,0.04295353218913078
3.580307722091675,39.21036911010742,29.846954345703125,-5.927619934082031,0.2023097425699234,7.676994800567627,0.03150682896375656,0.02418552152812481,0.06900002062320709
3.6401617527008057,39.22401809692383,29.92458152770996,-5.927912712097168,0.2374449223279953,7.637866497039795,0.017268024384975433,0.02420600689947605,0.07756968587636948
3.6790173053741455,39.22512435913086,29.98541831970215,-5.953858852386475,0.31811246275901794,7.61174201965332,0.009243004955351353,0.01329425722360611,0.0737236812710762
3.70257568359375,39.21644973754883,30.026395797729492,-5.994353294372559,0.4069497883319855,7.586621284484863,-0.0017173589440062642,0.0054830689914524555,0.06042849272489548
3.710625410079956,39.20626449584961,30.049230575561523,-6.012973785400391,0.4814918637275696,7.582758903503418,-0.005802512168884277,-0.0017907473957166076,0.045570552349090576
3.7075138092041016,39.192543029785156,30.055978775024414,-6.028421401977539,0.5057967305183411,7.5539445877075195,-0.014444439671933651,-0.009922310709953308,0.0258689746260643
3.6960291862487793,39.17584228515625,30.05379295349121,-6.013184547424316,0.4918246865272522,7.6043219566345215,-0.014650821685791016,-0.015005472116172314,0.018969736993312836
3.6936535835266113,39.16318893432617,30.06122398376465,-6.008552074432373,0.5161844491958618,7.636623859405518,-0.017781928181648254,-0.01015886664390564,0.018667617812752724
3.694955587387085,39.155391693115234,30.073719024658203,-6.040505886077881,0.517096996307373,7.632963180541992,-0.014048815704882145,-0.011191517114639282,0.01839008368551731
3.706674575805664,39.145896911621094,30.08704948425293,-6.0543975830078125,0.5290443301200867,7.666434288024902,-0.0036668037064373493,-0.008171425200998783,0.019695425406098366
3.727707624435425,39.14051055908203,30.107040405273438,-6.065064430236816,0.5120577812194824,7.6868133544921875,-0.0014066696166992188,-0.004510581959038973,0.02664942294359207
3.745725393295288,39.13945007324219,30.132780075073242,-6.096961975097656,0.5204790234565735,7.711559295654297,-0.004862621426582336,0.0029509887099266052,0.028233418241143227
3.7620668411254883,39.14278793334961,30.159086227416992,-6.114182472229004,0.534156322479248,7.676938056945801,-0.002735481131821871,0.006823429372161627,0.03390628844499588
3.7824487686157227,39.139564514160156,30.18829917907715,-6.095437049865723,0.5392332673072815,7.645371437072754,-0.004473328590393066,-0.0007215887890197337,0.03448818251490593
3.80007266998291,39.13147735595703,30.212167739868164,-6.1273193359375,0.6017178297042847,7.674857139587402,0.00048335647443309426,0.0017708170926198363,0.032906047999858856
3.8173155784606934,39.13325500488281,30.225725173950195,-6.154992580413818,0.6416884064674377,7.6178669929504395,0.0044496734626591206,0.007973798550665379,0.0200049951672554
3.81939697265625,39.1391487121582,30.216346740722656,-6.134763240814209,0.6289439797401428,7.615109443664551,0.004207529593259096,0.009344702586531639,-0.00014267860387917608
3.807619571685791,39.14473342895508,30.19166374206543,-6.090129375457764,0.579174280166626,7.621553421020508,0.001070834812708199,0.012276880443096161,-0.013543665409088135
3.7948758602142334,39.153995513916016,30.169219970703125,-6.016877174377441,0.5475336909294128,7.625268459320068,-0.00020638108253479004,0.01728888787329197,-0.017679110169410706
3.7821643352508545,39.16437530517578,30.14958953857422,-6.010080814361572,0.5085476040840149,7.601813316345215,-0.005133822560310364,0.017437152564525604,-0.023247675970196724
3.7728445529937744,39.174407958984375,30.133630752563477,-5.987416744232178,0.44139060378074646,7.642164707183838,0.00040251764585264027,0.022024471312761307,-0.016836078837513924
3.7805793285369873,39.18693923950195,30.13548469543457,-5.932751178741455,0.3975248336791992,7.616749286651611,7.43195487302728e-05,0.02355891838669777,-0.005058943293988705
3.77701997756958,39.1905517578125,30.138940811157227,-5.911471843719482,0.3946988880634308,7.596208095550537,-0.015527009963989258,0.011192449368536472,-0.007223337888717651
3.754554510116577,39.18125915527344,30.12993812561035,-5.92830753326416,0.40450626611709595,7.587340354919434,-0.01950264163315296,0.0015793369384482503,-0.008630380034446716
3.7386043071746826,39.17258834838867,30.12128448486328,-5.949799537658691,0.40957146883010864,7.595146656036377,-0.020141899585723877,-0.00012032688391627744,-0.008982047438621521
3.7264602184295654,39.16545867919922,30.113113403320312,-5.955007076263428,0.38270673155784607,7.591823577880859,-0.01734904944896698,-0.005244836676865816,-0.009558350779116154
3.720207691192627,39.15230941772461,30.10823631286621,-5.960423469543457,0.3261786103248596,7.604049205780029,-0.014131888747215271,-0.012005121447145939,-0.004203245043754578
3.7265281677246094,39.13687515258789,30.11961555480957,-5.966236591339111,0.30742791295051575,7.617920875549316,-0.010495258495211601,-0.012935323640704155,0.012085028924047947
3.7410008907318115,39.12226104736328,30.146665573120117,-6.009695053100586,0.35442447662353516,7.611678600311279,-0.013945251703262329,-0.015919284895062447,0.022277049720287323
3.7400362491607666,39.10985565185547,30.16475486755371,-6.056009292602539,0.4283699691295624,7.6603593826293945,-0.023878740146756172,-0.010800361633300781,0.015985779464244843
3.726824998855591,39.1107177734375,30.16845703125,-6.143979549407959,0.48536163568496704,7.661950588226318,-0.022930283099412918,0.002884120447561145,0.011538343504071236
3.72320818901062,39.12245178222656,30.174901962280273,-6.160070896148682,0.514243483543396,7.652851104736328,-0.020093843340873718,0.013537891209125519,0.012168102897703648
3.7275655269622803,39.13101577758789,30.18450927734375,-6.133342742919922,0.5449302792549133,7.654419422149658,-0.011580436490476131,0.011278130114078522,0.01174528244882822
3.732806921005249,39.1308708190918,30.19040298461914,-6.16331672668457,0.5470764636993408,7.651123523712158,-0.011605769395828247,0.008725562132894993,0.008721091784536839
3.7279775142669678,39.12962341308594,30.187297821044922,-6.148717403411865,0.5933724641799927,7.679277420043945,-0.01074709091335535,0.00627320259809494,-0.0006940216408111155
3.7247703075408936,39.131927490234375,30.176401138305664,-6.14114236831665,0.5460613369941711,7.727719783782959,-0.0002507120661903173,0.01164954248815775,-0.00522807240486145
3.735525608062744,39.146018981933594,30.178340911865234,-6.080070972442627,0.4887423515319824,7.7656121253967285,0.0003376975655555725,0.025519175454974174,0.005877949297428131
3.745818853378296,39.16575622558594,30.19582176208496,-6.052014350891113,0.46281567215919495,7.743379592895508,-0.0077039017342031,0.02822894975543022,0.010606832802295685
3.7421398162841797,39.175132751464844,30.204944610595703,-6.113892555236816,0.48249778151512146,7.7745466232299805,-0.014230609871447086,0.02058129757642746,0.006856584455817938
3.738196611404419,39.18504333496094,30.20760154724121,-6.174328804016113,0.5003641843795776,7.837398529052734,-0.009083001874387264,0.0313265286386013,0.006529501639306545
3.734739303588867,39.212703704833984,30.205781936645508,-6.204037189483643,0.5296423435211182,7.80703592300415,-0.014996901154518127,0.043451230973005295,-0.004929676651954651
3.70090651512146,39.2407112121582,30.181446075439453,-6.2516279220581055,0.5243789553642273,7.778011798858643,-0.032096732407808304,0.04074554890394211,-0.024214014410972595
3.6437582969665527,39.25727081298828,30.140443801879883,-6.288476467132568,0.5203073620796204,7.835503101348877,-0.04321634769439697,0.034192394465208054,-0.037516653537750244
3.578744888305664,39.274173736572266,30.103618621826172,-6.396240711212158,0.4901588559150696,7.96746826171875,-0.06752201169729233,0.03902148827910423,-0.037870556116104126
3.5240180492401123,39.32630920410156,30.08963966369629,-6.546539306640625,0.4999355375766754,8.093088150024414,-0.06160401552915573,0.09100457280874252,-0.02377517893910408
3.5167810916900635,39.442970275878906,30.10258674621582,-6.633728981018066,0.5076618194580078,8.094805717468262,-0.03869906812906265,0.1584721952676773,-0.008865448646247387
3.5233631134033203,39.58015060424805,30.122697830200195,-6.676327228546143,0.4447588324546814,8.064769744873047,-0.0395309254527092,0.17933832108974457,-0.002375990618020296
3.5020883083343506,39.69166564941406,30.139713287353516,-6.855430603027344,0.43060415983200073,8.163426399230957,-0.061081741005182266,0.18092940747737885,0.004750304855406284
3.461864471435547,39.798614501953125,30.1568660736084,-7.127430438995361,0.5030603408813477,8.274206161499023,-0.07361957430839539,0.19222669303417206,0.004965999163687229
3.4203810691833496,39.92607879638672,30.15447235107422,-7.366722106933594,0.5643089413642883,8.346551895141602,-0.06303677707910538,0.2166217565536499,-0.01637451723217964
3.3969380855560303,40.090240478515625,30.126813888549805,-7.443640232086182,0.5360898375511169,8.409647941589355,-0.026450684294104576,0.2653690576553345,-0.03227294608950615
3.4074783325195312,40.30065155029297,30.101552963256836,-7.422611236572266,0.45639634132385254,8.35472583770752,0.004356169141829014,0.32173722982406616,-0.03938267007470131
3.4222240447998047,40.54044723510742,30.085050582885742,-7.388080596923828,0.3255033493041992,8.331496238708496,0.007719365414232016,0.36594682931900024,-0.03950747475028038
3.4189047813415527,40.79509735107422,30.070894241333008,-7.380093574523926,0.1438453495502472,8.304713249206543,0.0011073435889557004,0.404102087020874,-0.04470091313123703
3.410120725631714,41.070674896240234,30.06402015686035,-7.384995460510254,0.006349184084683657,8.28607177734375,-0.006684666499495506,0.44719597697257996,-0.03201516717672348
3.4408211708068848,41.374610900878906,30.101470947265625,-7.319883346557617,-0.0676480382680893,8.226396560668945,0.012701577506959438,0.49509552121162415,0.005214108154177666
3.5123565196990967,41.696414947509766,30.18393898010254,-7.208670139312744,-0.06964938342571259,8.151846885681152,0.004724977537989616,0.5249146819114685,0.0365728884935379
3.550816297531128,42.01869583129883,30.265583038330078,-7.185196876525879,-0.03710765019059181,8.072564125061035,-0.025257129222154617,0.5437752604484558,0.040545184165239334
3.5473830699920654,42.34922409057617,30.3233585357666,-7.177895545959473,0.006463927216827869,8.109857559204102,-0.04918655753135681,0.5671923756599426,0.03577009588479996
3.531989336013794,42.70545196533203,30.367250442504883,-7.1849799156188965,0.06255675852298737,8.143301010131836,-0.060219042003154755,0.606218695640564,0.02357460744678974
3.4963409900665283,43.09231948852539,30.387306213378906,-7.130354881286621,0.11862562596797943,8.062761306762695,-0.08055732399225235,0.6421232223510742,-0.0028640085365623236
3.449324607849121,43.49625015258789,30.39647674560547,-7.058559417724609,0.14505334198474884,7.983266353607178,-0.0783512070775032,0.6741222143173218,-0.0037774513475596905
3.448568105697632,43.90065002441406,30.44000816345215,-6.969563007354736,0.10749121755361557,7.918828010559082,-0.06131244823336601,0.6815638542175293,0.013911566697061062
3.4800496101379395,44.29022979736328,30.51758575439453,-7.037252902984619,0.023074084892868996,7.996394634246826,-0.06128859147429466,0.6828718781471252,0.03876339644193649
3.503199338912964,44.69150161743164,30.61923599243164,-7.134021282196045,0.03918488696217537,8.091168403625488,-0.0887567326426506,0.7113159894943237,0.05953976884484291
3.4728758335113525,45.12417984008789,30.706684112548828,-7.2842607498168945,0.09713812917470932,8.037786483764648,-0.13803090155124664,0.7377780675888062,0.0422830730676651
3.392817497253418,45.58549499511719,30.754907608032227,-7.414878845214844,0.17311114072799683,8.050450325012207,-0.15567953884601593,0.7865759134292603,0.029584655538201332
3.316770076751709,46.082035064697266,30.797903060913086,-7.511831283569336,0.22425642609596252,8.002924919128418,-0.1741097867488861,0.8253977298736572,0.015116342343389988
3.199442148208618,46.58036804199219,30.812103271484375,-7.748749732971191,0.21408230066299438,8.036706924438477,-0.2095191925764084,0.8364503383636475,-0.016815269365906715
3.022212505340576,47.09417724609375,30.764787673950195,-7.868219375610352,0.2545337975025177,8.092426300048828,-0.21918046474456787,0.8872919678688049,-0.07167745381593704
2.773510456085205,47.65399932861328,30.65017318725586,-8.150705337524414,0.24995601177215576,7.928394317626953,-0.2830497622489929,0.9240352511405945,-0.12897264957427979
2.481491804122925,48.240177154541016,30.525386810302734,-8.134860038757324,0.22063422203063965,8.009285926818848,-0.29002219438552856,0.9845272302627563,-0.13336820900440216
2.366831064224243,48.8750114440918,30.52715492248535,-8.21432113647461,0.20311491191387177,7.861677646636963,-0.20034222304821014,1.05283522605896,-0.03960933908820152
2.4859399795532227,49.53349685668945,30.698514938354492,-8.240044593811035,0.3146986663341522,7.748900413513184,-0.11111443489789963,1.0947649478912354,0.051738396286964417
2.6304771900177,50.192623138427734,30.89000129699707,-8.407774925231934,0.37643927335739136,7.823415756225586,-0.0954212173819542,1.1234877109527588,0.07154961675405502
2.6667697429656982,50.88218688964844,31.0003604888916,-8.53926944732666,0.473281592130661,7.771595001220703,-0.10560144484043121,1.1855392456054688,0.04753071442246437
2.6399412155151367,51.62317657470703,31.052703857421875,-8.591778755187988,0.5187239050865173,7.647587299346924,-0.11350325495004654,1.2388694286346436,0.022447438910603523
2.6137688159942627,52.3837890625,31.102205276489258,-8.52380657196045,0.5596276521682739,7.489011287689209,-0.11153297126293182,1.2815824747085571,0.018524697050452232
2.6519439220428467,53.16230773925781,31.1945743560791,-8.457921981811523,0.5889210104942322,7.300032615661621,-0.0688788890838623,1.3256295919418335,0.039874494075775146
2.7739264965057373,53.94816970825195,31.33385467529297,-8.435216903686523,0.5749848484992981,7.224807262420654,-0.02990610897541046,1.3394765853881836,0.05790504440665245
2.935009002685547,54.733314514160156,31.50067901611328,-8.592146873474121,0.5048854947090149,7.208486557006836,0.0009242517407983541,1.3699699640274048,0.083271324634552
3.157630205154419,55.55510711669922,31.71685028076172,-8.593125343322754,0.5014486908912659,7.079630374908447,0.04355963319540024,1.4200571775436401,0.11395741254091263
3.418532133102417,56.404563903808594,31.960317611694336,-8.51565933227539,0.44300276041030884,6.861660003662109,0.05608567222952843,1.4506089687347412,0.12152544409036636
3.6313705444335938,57.25590133666992,32.17986297607422,-8.441082000732422,0.40992027521133423,6.737961769104004,0.033122412860393524,1.4723985195159912,0.11104465276002884
3.7951250076293945,58.11555480957031,32.38135528564453,-8.503146171569824,0.43026119470596313,6.641951084136963,0.005915444809943438,1.4946017265319824,0.1026841327548027
3.9813296794891357,58.983890533447266,32.59852981567383,-8.673117637634277,0.49166762828826904,6.57551383972168,0.023235788568854332,1.510326862335205,0.1048036515712738
4.249307155609131,59.8588752746582,32.85581970214844,-8.87014389038086,0.5347799062728882,6.546416282653809,0.0585697740316391,1.5311824083328247,0.11665768921375275
4.564202785491943,60.76374816894531,33.139556884765625,-8.944801330566406,0.6636883616447449,6.404654026031494,0.07907067984342575,1.5800386667251587,0.11134059727191925
4.803285121917725,61.70362091064453,33.34967803955078,-8.909199714660645,0.7885433435440063,6.13908576965332,0.06966833770275116,1.6079457998275757,0.04774513840675354
4.855640411376953,62.63719940185547,33.385128021240234,-8.800448417663574,0.8598074316978455,5.878178596496582,0.03860243782401085,1.6058099269866943,-0.04348243772983551
4.785000801086426,63.5599365234375,33.2977294921875,-8.66259765625,0.8572486042976379,5.715649127960205,0.03541392460465431,1.6089415550231934,-0.1109846755862236
4.770164489746094,64.48681640625,33.234519958496094,-8.594184875488281,0.7453874945640564,5.735760688781738,0.06875713169574738,1.6127774715423584,-0.11439447849988937
4.940692901611328,65.4131088256836,33.31906509399414,-8.646063804626465,0.7029020190238953,5.599663257598877,0.12482857704162598,1.6200720071792603,-0.0713195949792862
5.260278701782227,66.34173583984375,33.521671295166016,-8.73502254486084,0.603697657585144,5.425008296966553,0.17480136454105377,1.6277410984039307,-0.04418803006410599
5.656383037567139,67.28924560546875,33.77756881713867,-8.688937187194824,0.5397803783416748,5.288382053375244,0.22601771354675293,1.6632412672042847,-0.010186553001403809
6.149184703826904,68.27135467529297,34.129669189453125,-8.704490661621094,0.48137983679771423,5.109947681427002,0.23537546396255493,1.701474666595459,0.020156117156147957
6.694653511047363,69.27161407470703,34.55768966674805,-8.653319358825684,0.46452364325523376,4.948420524597168,0.2414918690919876,1.735018014907837,0.04386977478861809
7.354187488555908,70.29206085205078,35.097129821777344,-8.714338302612305,0.4211263358592987,4.946802139282227,0.2565104067325592,1.7821907997131348,0.08214506506919861
8.138035774230957,71.35904693603516,35.76603698730469,-8.75110912322998,0.5760861039161682,4.685554504394531,0.24586588144302368,1.858157753944397,0.09116123616695404
8.789827346801758,72.45536804199219,36.34101104736328,-8.59688949584961,0.7430441379547119,4.327549457550049,0.18875600397586823,1.8710428476333618,0.019092954695224762
9.030081748962402,73.5220718383789,36.562042236328125,-8.525684356689453,0.8005915880203247,4.0806965827941895,0.09900307655334473,1.852990746498108,-0.10197198390960693
8.936447143554688,74.58528137207031,36.492034912109375,-8.585674285888672,0.818449079990387,3.8425803184509277,0.0333278626203537,1.8550509214401245,-0.19796930253505707
8.882569313049316,75.66554260253906,36.43838119506836,-8.536998748779297,0.7765561938285828,3.564432144165039,0.05250483378767967,1.8660354614257812,-0.21672458946704865
9.248891830444336,76.73494720458984,36.72060775756836,-8.511857032775879,0.6574873924255371,3.3315956592559814,0.13518735766410828,1.8597135543823242,-0.15945743024349213
10.14737606048584,77.77934265136719,37.469329833984375,-8.599295616149902,0.5640081167221069,3.099670171737671,0.20699931681156158,1.860299825668335,-0.08273544162511826
11.37328052520752,78.81725311279297,38.5349235534668,-8.64017105102539,0.42498427629470825,2.9606752395629883,0.24332930147647858,1.8579792976379395,-0.04644312709569931
12.650921821594238,79.85226440429688,39.68113708496094,-8.745136260986328,0.24296841025352478,2.9743926525115967,0.22270533442497253,1.855038046836853,-0.050896771252155304
13.91007137298584,80.90057373046875,40.872032165527344,-8.927321434020996,0.1374509632587433,2.93760347366333,0.16274523735046387,1.8727617263793945,-0.07645116001367569
15.535711288452148,81.97933197021484,42.45069885253906,-9.019296646118164,0.07648737728595734,2.812255859375,0.16547046601772308,1.9167497158050537,-0.05344347283244133
18.46196174621582,83.04467010498047,45.25321578979492,-9.18449878692627,0.03279966488480568,2.7071471214294434,0.2495497465133667,1.929125189781189,0.04376521334052086
23.282583236694336,84.048828125,49.8792724609375,-9.363428115844727,0.10620763897895813,2.5120389461517334,0.30412834882736206,1.9561101198196411,0.12403146922588348
29.979585647583008,85.0224838256836,56.398162841796875,-9.331811904907227,0.36225438117980957,2.1404075622558594,0.30446600914001465,1.9840006828308105,0.1260167807340622
38.5574951171875,85.95281219482422,64.85086059570312,-9.241737365722656,0.5438314080238342,1.893106460571289,0.2573912441730499,1.9729669094085693,0.04515387490391731
50.08186340332031,86.80709075927734,76.31098937988281,-9.26080322265625,0.599904477596283,1.945896863937378,0.18903754651546478,1.9630274772644043,-0.0510108545422554
68.43122100830078,87.48666381835938,94.61588287353516,-9.415556907653809,0.6217672228813171,1.8861362934112549,0.1743611842393875,1.9794750213623047,-0.09717842191457748
96.41997528076172,87.75205993652344,122.53006744384766,-9.423978805541992,0.6786050796508789,1.5647366046905518,0.1772574633359909,2.039232015609741,-0.134647399187088
125.31536865234375,87.4328842163086,151.33819580078125,-9.159735679626465,0.8513485789299011,1.0790008306503296,0.1845049411058426,2.095386028289795,-0.20209519565105438
145.47532653808594,86.6879653930664,171.41094970703125,-8.740396499633789,0.963765025138855,0.62297123670578,0.1804891675710678,2.1200428009033203,-0.3063640594482422
158.5620880126953,85.73639678955078,-175.56002807617188,-8.37088394165039,1.1004599332809448,0.22421889007091522,0.14288808405399323,2.1462526321411133,-0.44467678666114807
167.60659790039062,84.6528091430664,-166.5459747314453,-8.061463356018066,1.1011719703674316,-0.10636305809020996,0.13285166025161743,2.170732021331787,-0.5710598826408386
173.7248992919922,83.48534393310547,-160.49925231933594,-7.905673980712891,0.8107308149337769,-0.4774289131164551,0.17928211390972137,2.1702146530151367,-0.618636429309845
177.49905395507812,82.27831268310547,-156.89984130859375,-7.770472049713135,0.5359397530555725,-0.7709278464317322,0.2980130612850189,2.168588638305664,-0.5694265365600586
179.6322021484375,81.0645980834961,-155.0849151611328,-7.73143196105957,0.16695226728916168,-1.021331548690796,0.4655574560165405,2.1380746364593506,-0.4599897265434265
-179.14071655273438,79.8952407836914,-154.25491333007812,-7.9727864265441895,-0.1837472766637802,-1.2435433864593506,0.5433061122894287,2.076843738555908,-0.36516842246055603
-178.2830047607422,78.78398895263672,-153.75039672851562,-7.956597805023193,-0.2881825566291809,-1.2951619625091553,0.5507323145866394,2.003955364227295,-0.30517396330833435
-177.64048767089844,77.71524810791016,-153.38607788085938,-8.322478294372559,-0.5144489407539368,-1.2824238538742065,0.4867474138736725,1.9405128955841064,-0.25686347484588623
-177.2093963623047,76.64827728271484,-153.14373779296875,-8.60010051727295,-0.5382884740829468,-1.2973952293395996,0.3988262712955475,1.9282028675079346,-0.22384853661060333
-176.9257049560547,75.57211303710938,-153.01629638671875,-8.863008499145508,-0.45416414737701416,-1.3066233396530151,0.36163654923439026,1.8940871953964233,-0.1790987253189087
-176.744384765625,74.52177429199219,-153.0120849609375,-9.085947036743164,-0.3006165325641632,-1.4162471294403076,0.3415958285331726,1.8729246854782104,-0.14660319685935974
-176.519287109375,73.46653747558594,-152.92147827148438,-9.046740531921387,-0.17787572741508484,-1.5679972171783447,0.25541025400161743,1.8656378984451294,-0.18351726233959198
-176.0990753173828,72.4019775390625,-152.50376892089844,-9.012353897094727,-0.009643795900046825,-1.727697491645813,0.11454730480909348,1.856804609298706,-0.2929457128047943
-175.46188354492188,71.3388442993164,-151.7613067626953,-8.966696739196777,0.15176279842853546,-1.8319592475891113,0.010615558363497257,1.8393393754959106,-0.42402660846710205
-174.7357635498047,70.27540588378906,-150.92703247070312,-9.161572456359863,0.08492051810026169,-1.9444050788879395,-0.015670297667384148,1.8352792263031006,-0.5006493926048279
-174.1526641845703,69.19129943847656,-150.33604431152344,-9.291418075561523,-0.06536854058504105,-1.9730156660079956,0.06670737266540527,1.8614400625228882,-0.46124085783958435
-173.82763671875,68.07466888427734,-150.1551513671875,-9.389618873596191,-0.13709530234336853,-2.1329185962677,0.18596182763576508,1.9076321125030518,-0.3608265817165375
-173.6156768798828,66.94705200195312,-150.16116333007812,-9.2887601852417,-0.1335372030735016,-2.324496269226074,0.25789859890937805,1.9179600477218628,-0.3159644603729248
-173.35684204101562,65.86149597167969,-150.0879669189453,-9.281903266906738,-0.2367427796125412,-2.333667755126953,0.25794097781181335,1.8741564750671387,-0.313253253698349
-173.10292053222656,64.79400634765625,-149.93406677246094,-9.398935317993164,-0.24658602476119995,-2.273784637451172,0.1920623630285263,1.889228343963623,-0.3340284824371338
-172.88002014160156,63.63899230957031,-149.74307250976562,-9.216822624206543,-0.23265036940574646,-2.390956401824951,0.14731517434120178,1.9772099256515503,-0.3666381239891052
-172.6475372314453,62.39393615722656,-149.55775451660156,-9.063787460327148,-0.26952436566352844,-2.532219648361206,0.154778391122818,2.0584874153137207,-0.38480982184410095
-172.39111328125,61.10552978515625,-149.3712158203125,-8.632658958435059,-0.2674127221107483,-2.8521924018859863,0.14641669392585754,2.1369826793670654,-0.4275757074356079
-172.0856475830078,59.80155944824219,-149.0963592529297,-8.256223678588867,-0.26446759700775146,-3.225303888320923,0.11622007191181183,2.153454542160034,-0.4986216723918915
-171.72763061523438,58.531715393066406,-148.7032012939453,-8.025065422058105,-0.3662501275539398,-3.5140838623046875,0.05604385957121849,2.1374592781066895,-0.5881516337394714
-171.3656005859375,57.28211212158203,-148.24278259277344,-7.811463832855225,-0.5279399752616882,-3.702096939086914,0.00037756594247184694,2.120006799697876,-0.6511251926422119
-171.0668182373047,56.056026458740234,-147.8885955810547,-7.759061336517334,-0.7598106861114502,-3.7816503047943115,0.050944529473781586,2.089806318283081,-0.5973876714706421
-170.90118408203125,54.853981018066406,-147.83120727539062,-7.601292610168457,-1.0591154098510742,-4.021053791046143,0.15107108652591705,2.1014256477355957,-0.4409602880477905
-170.8775177001953,53.63722229003906,-148.0209503173828,-7.268153190612793,-1.027586579322815,-4.416178226470947,0.20981745421886444,2.123128890991211,-0.30582401156425476
-170.8966522216797,52.45112228393555,-148.2373046875,-6.981266498565674,-1.0981025695800781,-4.719545364379883,0.20856361091136932,2.0658905506134033,-0.2413194179534912
-170.91619873046875,51.33470153808594,-148.40338134765625,-6.574112892150879,-1.1544753313064575,-5.043454170227051,0.1907644271850586,2.0178134441375732,-0.1960829198360443
-170.99107360839844,50.24028015136719,-148.6558837890625,-5.729281425476074,-1.2555835247039795,-5.483473777770996,0.22337009012699127,1.9864528179168701,-0.06997179985046387
-171.16250610351562,49.17677688598633,-149.14732360839844,-5.120123386383057,-1.1753437519073486,-5.907353401184082,0.3206140100955963,1.9586312770843506,0.13257168233394623
-171.37957763671875,48.155487060546875,-149.81893920898438,-4.527139663696289,-1.1490647792816162,-6.481207370758057,0.40530887246131897,1.9139522314071655,0.288322389125824
-171.5919189453125,47.21416091918945,-150.55393981933594,-3.8204052448272705,-1.2315430641174316,-7.191737174987793,0.4926967918872833,1.804210901260376,0.45165321230888367
-171.8002166748047,46.38856506347656,-151.38011169433594,-3.211454391479492,-1.0087924003601074,-7.976973056793213,0.6003292202949524,1.6844661235809326,0.6011301279067993
-171.97207641601562,45.66324996948242,-152.25277709960938,-2.843716621398926,-0.9549221992492676,-8.577914237976074,0.6882243156433105,1.528525471687317,0.7139071226119995
-171.9930419921875,45.04694747924805,-152.92477416992188,-3.2115318775177,0.011360022239387035,-9.018436431884766,0.7087923884391785,1.3419393301010132,0.5487103462219238
-171.56544494628906,44.35946273803711,-152.46072387695312,-6.071323394775391,0.6266340017318726,-7.164816379547119,0.14591434597969055,1.2997967004776,-0.5789180994033813
-170.9560089111328,43.40774154663086,-150.84828186035156,-4.455522060394287,-2.0192391872406006,-6.795592784881592,-0.36165767908096313,1.3898087739944458,-1.1153231859207153
-170.81976318359375,42.426918029785156,-150.13731384277344,-2.609299898147583,-1.6101477146148682,-8.73808765411377,-0.11989714950323105,1.4686989784240723,-0.6183504462242126
-170.88487243652344,41.59803009033203,-150.87493896484375,-2.1576764583587646,-3.0849111080169678,-9.17862606048584,0.5149339437484741,1.5042812824249268,0.21067805588245392
-170.95639038085938,40.96318435668945,-152.41184997558594,-1.7150719165802002,-2.606152057647705,-10.015063285827637,1.0275808572769165,1.3753631114959717,0.9691299796104431
-171.1248321533203,40.582454681396484,-154.06239318847656,-1.3933535814285278,-3.024705171585083,-10.088732719421387,1.0905272960662842,1.123672366142273,1.2776612043380737
-171.4479217529297,40.39896011352539,-155.34410095214844,-1.4832583665847778,-2.613950729370117,-9.899641990661621,0.8317312002182007,0.8247168660163879,1.318819284439087
-171.97210693359375,40.32136154174805,-156.1854705810547,-1.6039493083953857,-2.1579606533050537,-9.92040729522705,0.2959662973880768,0.5904232859611511,1.047154188156128
-172.41473388671875,40.32310104370117,-156.53973388671875,-2.403395891189575,-1.4125292301177979,-10.170400619506836,0.1579626053571701,0.2891632318496704,0.7442113757133484
-172.535400390625,40.49352264404297,-156.48951721191406,-3.2134957313537598,-1.4610220193862915,-9.452160835266113,-0.1339864730834961,-0.0012010341743007302,0.2766612470149994
-172.587158203125,40.631595611572266,-156.06089782714844,-3.4832186698913574,-1.1750599145889282,-9.371160507202148,-0.2906666696071625,-0.022808469831943512,-0.06291981786489487
-172.46751403808594,40.65785217285156,-155.6126708984375,-3.888054847717285,-0.9716207981109619,-9.785442352294922,-0.15084786713123322,-0.10062461346387863,-0.24210220575332642
-172.16085815429688,40.748435974121094,-155.30868530273438,-3.5994954109191895,-1.4149774312973022,-9.250465393066406,0.0424213781952858,-0.13216029107570648,-0.19686001539230347
-171.90963745117188,40.854915618896484,-155.29371643066406,-3.457083225250244,-1.4946236610412598,-9.228415489196777,0.22088466584682465,-0.15474414825439453,-0.03761463612318039
-171.69400024414062,41.006290435791016,-155.45135498046875,-3.639702558517456,-1.4911298751831055,-9.0028715133667,0.37054207921028137,-0.20923033356666565,0.08568007498979568
-171.55821228027344,41.213356018066406,-155.6574249267578,-3.640580654144287,-1.7070164680480957,-8.523757934570312,0.3163450360298157,-0.2633950114250183,0.198812797665596
-171.62451171875,41.48163604736328,-155.85316467285156,-4.039599895477295,-1.7775993347167969,-8.384381294250488,0.15664805471897125,-0.3719228506088257,0.20957554876804352
-171.76394653320312,41.85275650024414,-155.87269592285156,-4.687472343444824,-1.6003963947296143,-8.13092041015625,-0.06782868504524231,-0.5290467143058777,0.1076340302824974
-171.88381958007812,42.29905319213867,-155.65487670898438,-5.6158447265625,-1.4024887084960938,-7.804168701171875,-0.2452453225851059,-0.6542998552322388,-0.06753184646368027
-171.90940856933594,42.73735046386719,-155.28549194335938,-6.193578243255615,-1.3057833909988403,-7.501047134399414,-0.3079906404018402,-0.6994718909263611,-0.1879577338695526
-171.88157653808594,43.13369369506836,-154.96510314941406,-6.613452911376953,-1.3445851802825928,-7.130032539367676,-0.27519574761390686,-0.6976867914199829,-0.1867503970861435
-171.87722778320312,43.519264221191406,-154.8316192626953,-6.944705009460449,-1.5389370918273926,-6.651686191558838,-0.19216763973236084,-0.6918483376502991,-0.07220596820116043
-171.9742889404297,43.90316390991211,-154.94410705566406,-7.296347618103027,-1.582179069519043,-6.219273567199707,-0.12544865906238556,-0.6486886739730835,0.12245557457208633
-172.18621826171875,44.24860763549805,-155.25384521484375,-7.827096939086914,-1.2446284294128418,-6.086639404296875,-0.07030939310789108,-0.5858353972434998,0.27516812086105347
-172.39454650878906,44.55511474609375,-155.60316467285156,-8.29661750793457,-0.852421760559082,-5.944392681121826,-0.0014700018800795078,-0.533510148525238,0.35259538888931274
-172.54495239257812,44.834476470947266,-155.8948211669922,-8.783600807189941,-0.6508418917655945,-5.680068492889404,0.018333110958337784,-0.48705562949180603,0.34723278880119324
-172.64825439453125,45.075286865234375,-156.03038024902344,-9.255739212036133,-0.3615695834159851,-5.47463846206665,-0.04034494236111641,-0.44064193964004517,0.22696973383426666
-172.6641387939453,45.25361251831055,-155.91888427734375,-9.679427146911621,-0.1252458095550537,-5.298076152801514,-0.11333531886339188,-0.3718184530735016,0.024559922516345978
-172.5518035888672,45.3255500793457,-155.6052703857422,-9.9215726852417,-0.09176312386989594,-5.0566816329956055,-0.12560082972049713,-0.24182918667793274,-0.16286717355251312
-172.3400115966797,45.263614654541016,-155.24099731445312,-9.867020606994629,-0.27265384793281555,-5.0292863845825195,-0.07574859261512756,-0.08023049682378769,-0.26948651671409607
-172.09564208984375,45.09758758544922,-154.9275360107422,-9.515484809875488,-0.39971181750297546,-5.156276226043701,-0.01744442619383335,0.07491616904735565,-0.31388601660728455
-171.85255432128906,44.87911605834961,-154.67391967773438,-9.123367309570312,-0.41988998651504517,-5.458285331726074,0.04695005342364311,0.18060387670993805,-0.3180725574493408
-171.60520935058594,44.6582145690918,-154.4681396484375,-8.810935974121094,-0.49618929624557495,-5.678215026855469,0.1079997643828392,0.241188645362854,-0.30292436480522156
-171.36122131347656,44.44158935546875,-154.29298400878906,-8.415220260620117,-0.6826716661453247,-5.8502912521362305,0.1437774896621704,0.2833400070667267,-0.28603991866111755
-171.19142150878906,44.22926330566406,-154.17108154296875,-7.935462951660156,-1.0051277875900269,-5.975722312927246,0.10529224574565887,0.3036153018474579,-0.22286155819892883
-171.17176818847656,44.040740966796875,-154.15541076660156,-7.508994102478027,-1.1130867004394531,-6.255537033081055,0.047233909368515015,0.30476927757263184,-0.13207466900348663
-171.2105712890625,43.8863410949707,-154.204345703125,-7.255187034606934,-1.0931451320648193,-6.619746208190918,0.043206483125686646,0.2775820791721344,-0.07024706900119781
-171.1917724609375,43.74932098388672,-154.25425720214844,-7.017080307006836,-1.0487273931503296,-6.765445232391357,0.09051956981420517,0.2760286331176758,-0.03564657270908356
-171.1131591796875,43.58596420288086,-154.29318237304688,-6.814995288848877,-1.0769153833389282,-6.917089462280273,0.13001178205013275,0.2937513589859009,-0.029488669708371162
-171.01901245117188,43.40937423706055,-154.30267333984375,-6.498361587524414,-1.1640297174453735,-7.10373067855835,0.12934938073158264,0.29152214527130127,-0.041672978550195694
-170.94544982910156,43.25548553466797,-154.2846221923828,-6.171789169311523,-1.2221773862838745,-7.33088493347168,0.1003621518611908,0.2669285237789154,-0.05189815163612366
-170.89993286132812,43.140052795410156,-154.27505493164062,-5.95570182800293,-1.2856659889221191,-7.473177433013916,0.09000507742166519,0.2245945930480957,-0.03281869739294052
-170.8699951171875,43.066104888916016,-154.3155059814453,-5.84787654876709,-1.3097409009933472,-7.57988166809082,0.10392536222934723,0.18077217042446136,0.011987054720520973
-170.841064453125,43.02022171020508,-154.39370727539062,-5.7726359367370605,-1.2957570552825928,-7.6601691246032715,0.1229277029633522,0.141399547457695,0.041488371789455414
-170.79940795898438,42.993804931640625,-154.4776611328125,-5.686017036437988,-1.4049289226531982,-7.612445831298828,0.14677180349826813,0.10462681949138641,0.06946233659982681
-170.7822723388672,42.99032211303711,-154.5867462158203,-5.581643581390381,-1.5661451816558838,-7.6197638511657715,0.12902599573135376,0.06765519827604294,0.10907074064016342
-170.828369140625,43.02239990234375,-154.71810913085938,-5.560340881347656,-1.5995880365371704,-7.747981548309326,0.08680728077888489,0.010883250273764133,0.13551953434944153
-170.89096069335938,43.09547424316406,-154.82374572753906,-5.624765872955322,-1.4707492589950562,-7.682548999786377,0.051988113671541214,-0.04547574743628502,0.1274818480014801
-170.92770385742188,43.17966842651367,-154.87171936035156,-5.7985405921936035,-1.4551031589508057,-7.574563980102539,0.021076390519738197,-0.07679052650928497,0.09227525442838669
-170.93814086914062,43.2565803527832,-154.86776733398438,-5.991004943847656,-1.3648425340652466,-7.477635860443115,0.0010536987101659179,-0.09978824853897095,0.05213078856468201
-170.93275451660156,43.3242073059082,-154.83074951171875,-6.167482376098633,-1.3039690256118774,-7.31210470199585,-0.021867087110877037,-0.09877347946166992,0.01304615568369627
-170.920654296875,43.3708610534668,-154.77198791503906,-6.4130330085754395,-1.1906696557998657,-7.282883644104004,-0.03327392414212227,-0.09098275750875473,-0.02091825008392334
-170.87962341308594,43.40945053100586,-154.6909637451172,-6.602869987487793,-1.1720515489578247,-7.2264251708984375,-0.021157044917345047,-0.08837694674730301,-0.0561002716422081
-170.80503845214844,43.449745178222656,-154.59402465820312,-6.711124420166016,-1.1845204830169678,-7.1176300048828125,-0.005227701272815466,-0.08948484063148499,-0.0741027444601059
-170.73681640625,43.49601745605469,-154.50558471679688,-6.761684894561768,-1.304717779159546,-6.9924635887146,-0.010056794621050358,-0.09437428414821625,-0.07878095656633377
-170.69911193847656,43.554832458496094,-154.4308319091797,-6.787430286407471,-1.3371518850326538,-6.966067790985107,-0.02626069262623787,-0.1095205694437027,-0.07133447378873825
-170.68243408203125,43.628604888916016,-154.3870086669922,-6.841183662414551,-1.2928235530853271,-6.879136562347412,-0.014541673474013805,-0.11863449215888977,-0.04051067307591438
-170.67147827148438,43.69562911987305,-154.3933868408203,-7.0091938972473145,-1.2564677000045776,-6.726340293884277,0.007974916137754917,-0.10282769799232483,-0.0030852854251861572
-170.67518615722656,43.733577728271484,-154.41514587402344,-7.232612609863281,-1.1919974088668823,-6.623849868774414,-0.009920818731188774,-0.07453189045190811,0.0012142581399530172
-170.6820831298828,43.75050354003906,-154.37896728515625,-7.328009605407715,-1.1401493549346924,-6.675654411315918,-0.04486069455742836,-0.06254204362630844,-0.043762847781181335
-170.6607208251953,43.75754165649414,-154.27459716796875,-7.3062920570373535,-1.1544110774993896,-6.647946834564209,-0.060734909027814865,-0.04307590425014496,-0.08212552219629288
-170.63055419921875,43.748435974121094,-154.18304443359375,-7.263174533843994,-1.2984228134155273,-6.636568069458008,-0.04901142045855522,-0.020210817456245422,-0.07738545536994934
-170.61593627929688,43.73173522949219,-154.1577911376953,-7.14576530456543,-1.3838920593261719,-6.702648639678955,-0.023734943941235542,0.0031417235732078552,-0.040156397968530655
-170.62283325195312,43.71352767944336,-154.1881103515625,-7.0038886070251465,-1.4055639505386353,-6.786423206329346,-0.007793680299073458,0.016718173399567604,-0.0039324164390563965
-170.64747619628906,43.70481872558594,-154.22991943359375,-6.895534038543701,-1.4189432859420776,-6.840357303619385,-0.01567751355469227,0.012451596558094025,0.014083647169172764
-170.69064331054688,43.7154655456543,-154.2578582763672,-6.75146484375,-1.4214459657669067,-6.9309515953063965,-0.040874261409044266,-0.005817041732370853,0.020542185753583908
-170.74636840820312,43.74233627319336,-154.287841796875,-6.656919956207275,-1.408711314201355,-6.995091438293457,-0.04301593080163002,-0.0194404274225235,0.03918801620602608
-170.7979736328125,43.7679328918457,-154.3499298095703,-6.586285591125488,-1.3827155828475952,-6.983353137969971,-0.020104648545384407,-0.015418979339301586,0.06655138731002808
-170.83973693847656,43.782657623291016,-154.4346160888672,-6.544841766357422,-1.3507152795791626,-7.035295009613037,-0.0007338821887969971,-0.009837747551500797,0.08287931978702545
-170.8731231689453,43.80067443847656,-154.48509216308594,-6.518207550048828,-1.2547024488449097,-7.08535623550415,-0.023878369480371475,-0.02403073199093342,0.052220944315195084
-170.8927764892578,43.826995849609375,-154.44223022460938,-6.600300312042236,-1.2028234004974365,-7.085865020751953,-0.07010402530431747,-0.03728307783603668,-0.014611336402595043
-170.88333129882812,43.851993560791016,-154.32286071777344,-6.656384468078613,-1.2089998722076416,-7.109023571014404,-0.08870998024940491,-0.05121567100286484,-0.07386394590139389
-170.84226989746094,43.88957595825195,-154.17645263671875,-6.654813766479492,-1.2998281717300415,-7.051865100860596,-0.0939529612660408,-0.07769578695297241,-0.1114424541592598
-170.80526733398438,43.94453430175781,-154.03634643554688,-6.727761268615723,-1.3899357318878174,-6.946280002593994,-0.10699371248483658,-0.09395332634449005,-0.1202508956193924
-170.82119750976562,44.00285339355469,-153.94512939453125,-6.81627893447876,-1.4646949768066406,-6.839879035949707,-0.13252203166484833,-0.10004864633083344,-0.0872485563158989
-170.88717651367188,44.053504943847656,-153.91961669921875,-6.884115219116211,-1.311829686164856,-6.778872966766357,-0.12788738310337067,-0.0837467834353447,-0.04983694106340408
-170.9388427734375,44.08527755737305,-153.92041015625,-7.047318458557129,-1.2433745861053467,-6.757427215576172,-0.10112787038087845,-0.0683709979057312,-0.026939069852232933
-170.9690399169922,44.10296630859375,-153.9353790283203,-7.076159954071045,-1.2258070707321167,-6.6846184730529785,-0.06851740926504135,-0.040376193821430206,0.0012775883078575134
-171.0107879638672,44.10437774658203,-153.98617553710938,-7.124864101409912,-1.1871602535247803,-6.72051477432251,-0.051069267094135284,-0.017952175810933113,0.035785697400569916
-171.07394409179688,44.11541748046875,-154.05555725097656,-7.154261112213135,-1.0937402248382568,-6.76508092880249,-0.050701577216386795,-0.025332720950245857,0.05510728806257248
-171.14044189453125,44.14324188232422,-154.11036682128906,-7.230715274810791,-1.068082332611084,-6.734450340270996,-0.05706958472728729,-0.027407338842749596,0.05677715688943863
-171.19964599609375,44.1591682434082,-154.14500427246094,-7.27779483795166,-1.0277917385101318,-6.683348178863525,-0.06210207939147949,-0.016183407977223396,0.04617777094244957
-171.255859375,44.16389465332031,-154.15699768066406,-7.244436264038086,-0.9702707529067993,-6.683818340301514,-0.08573532849550247,-0.014449657872319221,0.02741423062980175
-171.31895446777344,44.1669807434082,-154.1399383544922,-7.254599571228027,-0.9273242354393005,-6.686956405639648,-0.1144878938794136,-0.007681550923734903,-0.0008676202269271016
-171.3726348876953,44.15517807006836,-154.1083526611328,-7.212076187133789,-0.9425349235534668,-6.702633380889893,-0.11055620014667511,0.01024771761149168,-0.013238193467259407
-171.415283203125,44.12641525268555,-154.11636352539062,-7.088650703430176,-1.0152620077133179,-6.772565841674805,-0.0758882611989975,0.03592502698302269,0.015405009500682354
-171.46432495117188,44.08263397216797,-154.1922149658203,-6.925772190093994,-0.9616342186927795,-6.833409309387207,-0.03532469645142555,0.06682071089744568,0.05460884049534798
-171.51300048828125,44.03557586669922,-154.29043579101562,-6.8387651443481445,-0.9192607402801514,-6.965827941894531,-0.01354515552520752,0.07136072218418121,0.07104482501745224
-171.55776977539062,44.002197265625,-154.3731689453125,-6.739968299865723,-0.8776308298110962,-6.996802806854248,-0.0067625208757817745,0.07114112377166748,0.0782981589436531
-171.60739135742188,43.97932052612305,-154.43934631347656,-6.668701171875,-0.8249183893203735,-7.042001724243164,-0.02031773515045643,0.054660260677337646,0.06976035237312317
-171.65670776367188,43.98247146606445,-154.45875549316406,-6.65065860748291,-0.814964234828949,-7.079791069030762,-0.056185945868492126,0.017280692234635353,0.034087710082530975
-171.69593811035156,44.005409240722656,-154.42266845703125,-6.692751407623291,-0.7912001609802246,-7.071436405181885,-0.08354075998067856,-0.006160141434520483,-0.0027142465114593506
-171.7113037109375,44.01560592651367,-154.38059997558594,-6.724456787109375,-0.8267850875854492,-6.993227481842041,-0.05758107081055641,0.0008800998330116272,-0.012240187264978886
-171.69427490234375,44.00193405151367,-154.3671875,-6.773193359375,-0.8616745471954346,-7.0205793380737305,-0.019628560170531273,0.01683403179049492,-0.009959563612937927
-171.66500854492188,43.99033737182617,-154.35086059570312,-6.795042991638184,-0.9103982448577881,-7.033464431762695,-0.013804437592625618,0.0038100408855825663,-0.02494193986058235
-171.6381072998047,43.99686050415039,-154.29373168945312,-6.862555503845215,-0.926146924495697,-6.931572914123535,-0.03524795547127724,-0.00596046494320035,-0.053727999329566956
-171.61013793945312,44.00409698486328,-154.21041870117188,-6.9750165939331055,-0.9007914662361145,-6.868897438049316,-0.037848200649023056,-0.015242395922541618,-0.07228963822126389
-171.5712127685547,44.007118225097656,-154.13246154785156,-7.043147087097168,-0.8924252390861511,-6.7953200340271,-0.031114747747778893,-0.007538498379290104,-0.0769149512052536
-171.53074645996094,43.995216369628906,-154.06887817382812,-7.039911270141602,-0.8484451174736023,-6.817763328552246,-0.0202715415507555,0.0038200989365577698,-0.0768166109919548
-171.48297119140625,43.97477722167969,-154.00946044921875,-7.00961446762085,-0.8561672568321228,-6.8311944007873535,-0.006505848374217749,0.01564864255487919,-0.07861219346523285
-171.42784118652344,43.94886779785156,-153.95486450195312,-6.984275817871094,-0.9378387331962585,-6.849139213562012,0.009231828153133392,0.02547074668109417,-0.0722002238035202
-171.38101196289062,43.924652099609375,-153.9221649169922,-6.963290214538574,-1.0060228109359741,-6.898195266723633,0.019401874393224716,0.02857316844165325,-0.05281568691134453
-171.35333251953125,43.90980911254883,-153.91685485839844,-6.930992126464844,-1.0421019792556763,-6.920985698699951,0.024660121649503708,0.02430770732462406,-0.02935342863202095
-171.34039306640625,43.904239654541016,-153.9262237548828,-6.880818843841553,-1.0706932544708252,-6.902621746063232,0.021610597148537636,0.01841355301439762,-0.01275465078651905
-171.336669921875,43.90748596191406,-153.92730712890625,-6.838895320892334,-1.1115894317626953,-6.95780086517334,0.0038227068725973368,0.0033443793654441833,-0.01386925671249628
-171.33645629882812,43.928810119628906,-153.91448974609375,-6.760475158691406,-1.164249062538147,-6.969140529632568,-0.0044286251068115234,-0.021330641582608223,-0.008672104217112064
-171.34898376464844,43.9587516784668,-153.91969299316406,-6.687477111816406,-1.2087597846984863,-6.942601680755615,-0.014367329888045788,-0.023178383708000183,0.00966098252683878
-171.3842010498047,43.97405242919922,-153.96006774902344,-6.6873321533203125,-1.193041205406189,-6.972641468048096,-0.009679797105491161,-0.014118853025138378,0.036338530480861664
-171.41473388671875,43.981929779052734,-154.0191192626953,-6.7049665451049805,-1.0962458848953247,-7.018473148345947,0.0064665465615689754,-0.008767470717430115,0.049217987805604935
-171.41624450683594,43.98773956298828,-154.0591278076172,-6.769674301147461,-1.017678141593933,-6.9956889152526855,0.022607112303376198,-0.005058571696281433,0.038856081664562225
-171.39096069335938,43.991455078125,-154.0607147216797,-6.805849075317383,-0.9789993166923523,-6.989326477050781,0.02282317355275154,-0.007021055091172457,0.013821758329868317
-171.35401916503906,43.99532699584961,-154.02627563476562,-6.848521709442139,-1.0047316551208496,-6.98099422454834,0.01546125952154398,-0.008402393199503422,-0.016180049628019333
-171.30889892578125,43.99318313598633,-153.97006225585938,-6.823249340057373,-1.0770595073699951,-6.9353928565979,0.010905228555202484,-0.00274106883443892,-0.039805471897125244
-171.27243041992188,43.99070358276367,-153.91563415527344,-6.762991905212402,-1.1684013605117798,-6.9502854347229,-0.004883855581283569,-0.008915365673601627,-0.04408210888504982
-171.25997924804688,44.00835037231445,-153.87059020996094,-6.772767543792725,-1.2097551822662354,-6.988314628601074,-0.024152543395757675,-0.030031057074666023,-0.04642494022846222
-171.25039672851562,44.04627990722656,-153.82037353515625,-6.828884124755859,-1.2209508419036865,-6.970544338226318,-0.032062828540802,-0.05109421908855438,-0.04937760904431343
-171.2408905029297,44.09013366699219,-153.77947998046875,-6.878194332122803,-1.2488751411437988,-6.866912364959717,-0.03227293863892555,-0.05961321294307709,-0.03557242825627327
-171.2499237060547,44.113075256347656,-153.7758026123047,-6.972468852996826,-1.2132971286773682,-6.775538444519043,-0.027155505493283272,-0.02894662320613861,-0.011731311678886414
-171.26402282714844,44.106842041015625,-153.79693603515625,-6.98489236831665,-1.1835733652114868,-6.847798824310303,-0.011178851127624512,-0.01307316217571497,0.0011863186955451965
-171.2585906982422,44.106632232666016,-153.80654907226562,-6.940556526184082,-1.1510766744613647,-6.850147247314453,-0.0020053235348314047,-0.010886789299547672,-0.0005748122930526733
-171.24447631835938,44.10295867919922,-153.8030548095703,-6.921316623687744,-1.111936330795288,-6.7701520919799805,0.004029833246022463,0.006330573000013828,-0.0030301513615995646
-171.23196411132812,44.0757942199707,-153.7979736328125,-6.99180793762207,-1.10303795337677,-6.770707130432129,0.0024801127146929502,0.0315031036734581,-0.01056082546710968
-171.21119689941406,44.040748596191406,-153.77284240722656,-6.989364147186279,-1.113988995552063,-6.878881931304932,0.00015646220708731562,0.03334321081638336,-0.032443929463624954
-171.1808319091797,44.0252685546875,-153.7257843017578,-6.941797733306885,-1.1660757064819336,-6.897118091583252,-0.009008870460093021,0.018698913976550102,-0.04011616110801697
-171.16912841796875,44.026493072509766,-153.70289611816406,-6.921859264373779,-1.2216049432754517,-6.874406337738037,-0.005368516314774752,0.011019594967365265,-0.01990683563053608
-171.1785888671875,44.03412628173828,-153.72897338867188,-6.903614044189453,-1.2258390188217163,-6.879295349121094,0.004280917812138796,0.0024216249585151672,0.014655480161309242
-171.19976806640625,44.05046844482422,-153.77720642089844,-6.8936309814453125,-1.1751725673675537,-6.894908905029297,0.004681386519223452,-0.007440894842147827,0.030085260048508644
-171.21701049804688,44.06172561645508,-153.80880737304688,-6.8489460945129395,-1.1102641820907593,-6.859850883483887,0.0006357207894325256,-0.0005900859832763672,0.027230942621827126
-171.22140502929688,44.05585479736328,-153.81695556640625,-6.85739803314209,-1.1043438911437988,-6.892465114593506,-0.0009808690520003438,0.007735752500593662,0.011863748542964458
-171.21212768554688,44.05143356323242,-153.7998504638672,-6.7757158279418945,-1.0878628492355347,-6.937099933624268,-0.010164082981646061,-0.0010758638381958008,-0.006541982293128967
-171.20094299316406,44.059974670410156,-153.7633056640625,-6.719549179077148,-1.0933692455291748,-6.949970245361328,-0.022910166531801224,-0.009990486316382885,-0.024133924394845963
-171.18853759765625,44.074378967285156,-153.7195281982422,-6.69578742980957,-1.064985752105713,-6.958958625793457,-0.02600439079105854,-0.021459536626935005,-0.03236904740333557
-171.17015075683594,44.098289489746094,-153.6857147216797,-6.729513168334961,-1.0717155933380127,-6.942514419555664,-0.013060123659670353,-0.033389776945114136,-0.02676733024418354
-171.14675903320312,44.12961196899414,-153.67288208007812,-6.816776275634766,-1.090900182723999,-6.967738151550293,0.004987605381757021,-0.04167109727859497,-0.01262463629245758
-171.12294006347656,44.167030334472656,-153.67811584472656,-6.908049583435059,-1.1314634084701538,-6.919815540313721,0.022601895034313202,-0.052352625876665115,0.0028809532523155212
-171.1044158935547,44.20230484008789,-153.6864471435547,-7.022614002227783,-1.130963921546936,-6.79455041885376,0.017581699416041374,-0.04561470076441765,0.004773029126226902
-171.08668518066406,44.20918273925781,-153.671142578125,-7.133598804473877,-1.115965723991394,-6.697760581970215,0.010121055878698826,-0.01866072416305542,-0.018486009910702705
-171.05392456054688,44.17871856689453,-153.62310791015625,-7.1560564041137695,-1.1616092920303345,-6.663736820220947,-0.0010538847418501973,0.019192136824131012,-0.04392899572849274
-171.02279663085938,44.119140625,-153.57693481445312,-7.068682670593262,-1.2149159908294678,-6.740753173828125,0.0020833685994148254,0.058845993131399155,-0.04741884022951126
-170.99610900878906,44.050331115722656,-153.5490264892578,-6.971803188323975,-1.2576032876968384,-6.903458595275879,0.002302788896486163,0.07647817581892014,-0.04940890520811081
-170.9649200439453,43.9892463684082,-153.5037078857422,-6.850165843963623,-1.289662480354309,-7.022883892059326,-0.008060411550104618,0.08173343539237976,-0.07047989219427109
-170.92066955566406,43.926918029785156,-153.4149169921875,-6.674448490142822,-1.3636045455932617,-7.076509952545166,-0.027317559346556664,0.08763056993484497,-0.10576659440994263
-170.8811492919922,43.86198806762695,-153.31021118164062,-6.483575820922852,-1.4367077350616455,-7.118466377258301,-0.04587733373045921,0.08822661638259888,-0.11220204085111618
-170.87142944335938,43.81009292602539,-153.2441864013672,-6.314117431640625,-1.4111329317092896,-7.175675868988037,-0.051709648221731186,0.07860904186964035,-0.08954742550849915
-170.88992309570312,43.784461975097656,-153.22628784179688,-6.170503616333008,-1.3700027465820312,-7.2162346839904785,-0.05549043416976929,0.05317721888422966,-0.051559872925281525
-170.9378662109375,43.79676055908203,-153.2504119873047,-6.223757743835449,-1.2974696159362793,-7.240075588226318,-0.05821232125163078,0.011913105845451355,-0.004148297011852264
-170.9976806640625,43.84745788574219,-153.30386352539062,-6.339338302612305,-1.2102495431900024,-7.204213619232178,-0.044578325003385544,-0.03273896872997284,0.03338177129626274
-171.0428009033203,43.923500061035156,-153.3601837158203,-6.447875499725342,-1.115916132926941,-7.140232563018799,-0.031732767820358276,-0.07254965603351593,0.05364846810698509
-171.07498168945312,44.01319885253906,-153.39768981933594,-6.610260009765625,-1.0129518508911133,-7.01516580581665,-0.031072275713086128,-0.10477863252162933,0.05106460675597191
-171.09706115722656,44.09981918334961,-153.41030883789062,-6.828735828399658,-0.9797427654266357,-6.858295440673828,-0.03130808845162392,-0.11192002892494202,0.04209708422422409
-171.10243225097656,44.16970443725586,-153.40634155273438,-7.0020222663879395,-1.0018839836120605,-6.802819728851318,-0.021420424804091454,-0.1114174872636795,0.02334919385612011
-171.0856475830078,44.229209899902344,-153.3750457763672,-7.101012706756592,-1.033901572227478,-6.76441764831543,-0.026126956567168236,-0.10642337054014206,-0.003407150972634554
-171.06216430664062,44.28073501586914,-153.3275146484375,-7.2008490562438965,-1.1178226470947266,-6.711999893188477,-0.019600987434387207,-0.10029787570238113,-0.017584487795829773
-171.04051208496094,44.330474853515625,-153.30397033691406,-7.232597351074219,-1.1923891305923462,-6.688396453857422,-0.004887208342552185,-0.09366051107645035,-0.0009566546068526804
-171.03871154785156,44.38621139526367,-153.327880859375,-7.253019332885742,-1.244252324104309,-6.655420303344727,0.010083057917654514,-0.09526312351226807,0.02842750959098339
-171.05746459960938,44.44477081298828,-153.38302612304688,-7.293418884277344,-1.2138556241989136,-6.5972514152526855,0.012114083394408226,-0.08577293157577515,0.054859187453985214
-171.0898895263672,44.48592758178711,-153.44680786132812,-7.304121494293213,-1.1869158744812012,-6.547479152679443,0.011768005788326263,-0.06520674377679825,0.06358082592487335
-171.1117706298828,44.51068878173828,-153.48410034179688,-7.295835018157959,-1.1422573328018188,-6.5851287841796875,0.00015441328287124634,-0.05314500257372856,0.044187720865011215
-171.12225341796875,44.53028106689453,-153.47657775878906,-7.301036834716797,-1.0476688146591187,-6.641990661621094,-0.02341344580054283,-0.04424453154206276,0.015788711607456207
-171.12774658203125,44.54290008544922,-153.44422912597656,-7.302872657775879,-1.0095851421356201,-6.651024341583252,-0.03318488597869873,-0.033847615122795105,-0.007642061915248632
-171.12210083007812,44.54400634765625,-153.41029357910156,-7.3321967124938965,-0.9740806818008423,-6.663515567779541,-0.029459601268172264,-0.015759095549583435,-0.01763962395489216
-171.1087188720703,44.53084182739258,-153.38143920898438,-7.330137252807617,-0.9308945536613464,-6.660271644592285,-0.02324916422367096,0.0021798538509756327,-0.028700387105345726
-171.08399963378906,44.50388717651367,-153.3423309326172,-7.305536270141602,-0.9265620112419128,-6.6698737144470215,-0.01844540424644947,0.02421308308839798,-0.043945763260126114
-171.04214477539062,44.45779037475586,-153.29473876953125,-7.248315334320068,-0.9720939993858337,-6.657751560211182,0.0025393441319465637,0.05142446607351303,-0.05548969283699989
-170.98477172851562,44.39433288574219,-153.2512969970703,-7.163490295410156,-1.0399198532104492,-6.678463459014893,0.018579699099063873,0.07698444277048111,-0.058927394449710846
-170.93374633789062,44.31827926635742,-153.21214294433594,-7.055660247802734,-1.040966510772705,-6.717791557312012,0.01776423491537571,0.1010877937078476,-0.06535835564136505
-170.8921661376953,44.23463821411133,-153.16383361816406,-7.003937721252441,-1.0760233402252197,-6.805827617645264,0.007059240248054266,0.11389090120792389,-0.07588120549917221
-170.84634399414062,44.16094970703125,-153.10353088378906,-6.889682769775391,-1.0971322059631348,-6.94026517868042,0.009796957485377789,0.10550155490636826,-0.08406007289886475
-170.79356384277344,44.11297607421875,-153.0384521484375,-6.773232460021973,-1.1781266927719116,-6.974783420562744,0.002769567770883441,0.0813683569431305,-0.08535797148942947
-170.76417541503906,44.089599609375,-152.99703979492188,-6.708493709564209,-1.2731260061264038,-6.991492748260498,0.0005001202807761729,0.0594085156917572,-0.05615317076444626
-170.76284790039062,44.08579635620117,-153.00877380371094,-6.633180618286133,-1.2803322076797485,-7.020547866821289,0.01130607072263956,0.034198351204395294,-0.015446172095835209
