Roll,Pitch,Yaw,AccX,AccY,AccZ,GyroX,GyroY,GyroZ
-107.61924743652344,-26.900909423828125,23.91228485107422,4.418802261352539,-8.32405948638916,-2.6401753425598145,-0.007073954213410616,0.0009292736649513245,-0.007870049215853214
-107.63016510009766,-26.887252807617188,23.561603546142578,4.4274797439575195,-8.320493698120117,-2.644690752029419,0.007980876602232456,0.005133636761456728,0.008591823279857635
-107.6243667602539,-26.881092071533203,23.560495376586914,4.435414791107178,-8.336816787719727,-2.6565964221954346,0.007105432450771332,-0.00017732383275870234,0.0044455742463469505
-107.62803649902344,-26.88213348388672,23.560686111450195,4.431753635406494,-8.338083267211914,-2.6513285636901855,0.003010593354701996,0.0023895876947790384,0.006418116856366396
-107.62474060058594,-26.883182525634766,23.559715270996094,4.435638427734375,-8.334175109863281,-2.6445372104644775,0.005806052591651678,0.0028347596526145935,0.004788674879819155
-107.6273193359375,-26.88543701171875,23.559398651123047,4.433828353881836,-8.353397369384766,-2.6616785526275635,0.002646632492542267,0.003409571945667267,0.0003790482587646693
-107.63032531738281,-26.885211944580078,23.561519622802734,4.431025505065918,-8.330978393554688,-2.6482913494110107,-0.0011168423807248473,0.0029688705690205097,0.0008272008853964508
-107.63280487060547,-26.887958526611328,23.566387176513672,4.437740802764893,-8.33080005645752,-2.6502270698547363,0.0006886199698783457,-0.0009350479813292623,-0.0010408461093902588
-107.6419677734375,-26.895301818847656,23.569360733032227,4.436305046081543,-8.338336944580078,-2.659604787826538,-0.0018347055884078145,8.381903171539307e-06,-0.00496469484642148
-107.69384765625,-26.928619384765625,23.582836151123047,4.425006866455078,-8.294004440307617,-2.6393918991088867,-0.010665878653526306,0.0003935769200325012,-0.009649992920458317
-107.82772064208984,-26.994888305664062,23.621307373046875,4.392185211181641,-8.252411842346191,-2.6083364486694336,-0.07063187658786774,-0.0008281322079710662,-0.057048358023166656
-108.00862884521484,-27.05002784729004,23.669944763183594,4.366772651672363,-8.304847717285156,-2.573887825012207,-0.14273115992546082,-0.018599634990096092,-0.08099155873060226
-108.18579864501953,-27.10085678100586,23.704856872558594,4.326231956481934,-8.183364868164062,-2.5178871154785156,-0.2046324759721756,-0.022667277604341507,-0.09083228558301926
-108.06482696533203,-27.256603240966797,23.47215461730957,4.321791648864746,-8.294941902160645,-2.496023654937744,-0.2191678136587143,-0.01801699958741665,-0.09130948781967163
-107.36746978759766,-27.75544548034668,21.81683921813965,3.13783597946167,-7.5765790939331055,-3.604961633682251,0.04064350947737694,0.42520588636398315,-0.14543284475803375
-107.32688903808594,-27.47644805908203,19.90991973876953,2.317512273788452,-8.681676864624023,-4.936097621917725,-0.3764950931072235,2.263948440551758,-0.0005841383244842291
-108.96967315673828,-25.70527458190918,19.910301208496094,1.773030161857605,-8.083658218383789,-5.540562629699707,-1.0597052574157715,0.8321102261543274,1.1948845386505127
-110.11219024658203,-24.43851089477539,19.709802627563477,3.0008585453033447,-8.826878547668457,-4.168865203857422,-2.126640558242798,0.4825974404811859,1.7903532981872559
-109.63036346435547,-24.153532028198242,18.207693099975586,2.764312505722046,-8.481160163879395,-4.40630578994751,-1.058535099029541,-0.10483352094888687,1.6136887073516846
-106.99864959716797,-26.772212982177734,10.6189603805542,5.567187786102295,-6.561769008636475,-0.2546808421611786,-1.288034200668335,2.6972196102142334,1.4570802450180054
-100.1004638671875,-30.2921142578125,1.3926360607147217,10.35792350769043,-8.462979316711426,7.0907697677612305,-0.9430334568023682,9.9791898727417,-0.4695899486541748
-93.16226959228516,-30.476768493652344,2.2403697967529297,5.427498817443848,-9.606579780578613,5.698314666748047,3.712136745452881,7.910962104797363,-0.7759351134300232
-91.6897201538086,-29.582136154174805,10.860286712646484,3.45772647857666,-10.69700813293457,0.9224916100502014,8.176140785217285,0.7460576295852661,-0.9290127158164978
-94.32134246826172,-28.412498474121094,15.001708030700684,5.825540542602539,-9.463151931762695,-4.595367908477783,5.521864891052246,-6.034083843231201,0.177006796002388
-95.99519348144531,-30.011438369750977,11.471261024475098,8.569281578063965,-7.934206962585449,-8.976216316223145,1.4446648359298706,0.21643927693367004,-0.23680172860622406
-99.53380584716797,-32.37685012817383,12.313328742980957,8.479646682739258,-7.865293502807617,-6.4229888916015625,-1.7722347974777222,-0.5834925770759583,-1.8006017208099365
-100.89984130859375,-33.99798583984375,12.903055191040039,6.495823860168457,-9.33192253112793,-1.6120679378509521,-2.217294931411743,0.18507006764411926,-2.690197706222534
-100.63335418701172,-34.21670913696289,13.313764572143555,5.5709638595581055,-9.442695617675781,-0.10706312209367752,-1.3327714204788208,-1.123828649520874,-2.079021453857422
-100.03988647460938,-33.6036376953125,12.853618621826172,4.26605749130249,-9.22901439666748,-2.927922487258911,-0.07172726839780807,0.7777034044265747,-1.0578709840774536
-101.58451843261719,-32.78561019897461,13.894142150878906,5.843543529510498,-9.36572265625,-4.374596118927002,-0.6388582587242126,-1.450097918510437,0.1381216049194336
-101.84931945800781,-33.601470947265625,12.20865249633789,8.712790489196777,-10.458354949951172,-3.634491443634033,-1.1521201133728027,0.48681387305259705,-0.054431311786174774
-103.1849136352539,-34.71517562866211,12.360614776611328,8.943954467773438,-10.469308853149414,-4.180119514465332,-1.55099618434906,0.7631244659423828,-0.7435442209243774
-105.35419464111328,-35.93360137939453,13.710311889648438,9.668587684631348,-10.258548736572266,-4.124433517456055,-1.7839422225952148,-0.08196472376585007,-1.2595505714416504
-108.09603881835938,-37.57980728149414,15.024191856384277,9.864437103271484,-10.313103675842285,-4.931593894958496,-2.2109639644622803,-0.5045683979988098,-1.9861085414886475
-111.54837036132812,-39.442138671875,16.612194061279297,8.991744041442871,-10.19554615020752,-5.246412754058838,-2.9933018684387207,-0.5248066782951355,-2.5362625122070312
-115.28840637207031,-41.51127243041992,18.98342514038086,8.471535682678223,-11.049349784851074,-3.9086966514587402,-3.508432388305664,-0.9065998196601868,-3.249249219894409
-118.9087142944336,-43.23118591308594,21.843448638916016,8.218762397766113,-10.156265258789062,-3.58058500289917,-3.3335282802581787,-1.0844852924346924,-3.833580732345581
-122.64111328125,-43.927181243896484,25.05243492126465,7.511373519897461,-10.112056732177734,-3.8022055625915527,-3.1223161220550537,-1.7872153520584106,-3.7509922981262207
-125.96591186523438,-44.17442321777344,27.851171493530273,7.691874980926514,-9.86546802520752,-3.4524996280670166,-2.913454294204712,-2.1723151206970215,-3.148549795150757
-128.87460327148438,-44.77875518798828,30.157426834106445,7.776363372802734,-10.10940933227539,-3.2808990478515625,-2.6627938747406006,-2.249805450439453,-2.9032955169677734
-131.28562927246094,-45.75112533569336,31.787321090698242,7.729175090789795,-10.1582670211792,-3.3836021423339844,-2.519336462020874,-1.562232494354248,-2.8125317096710205
-133.2130889892578,-46.583221435546875,33.40032196044922,7.509051322937012,-9.769773483276367,-3.147547721862793,-2.2938413619995117,-1.1260311603546143,-2.7083451747894287
-134.34486389160156,-47.04073715209961,35.01456069946289,7.409648418426514,-9.061973571777344,-3.080174446105957,-1.5369113683700562,-0.9072898626327515,-2.504178762435913
-135.13662719726562,-47.3663330078125,36.46318435668945,7.324461460113525,-8.872615814208984,-3.971137762069702,-0.6704243421554565,-1.0871485471725464,-2.107342004776001
-136.0065460205078,-48.477691650390625,37.53651428222656,7.45230770111084,-8.304340362548828,-5.138258457183838,-0.4078938961029053,-0.6698077321052551,-1.991805076599121
-137.48716735839844,-50.0413818359375,39.107975006103516,6.584860324859619,-8.127300262451172,-5.6139326095581055,-0.37444835901260376,0.08146493136882782,-2.3726603984832764
-139.8046417236328,-50.967857360839844,41.366180419921875,4.637398719787598,-8.915099143981934,-5.59699821472168,-0.5032649040222168,0.008277316577732563,-2.8016300201416016
-141.56024169921875,-51.15202713012695,42.84141159057617,3.9406285285949707,-9.133241653442383,-4.670604705810547,-0.8788327574729919,-0.3647899627685547,-2.5239224433898926
-142.09249877929688,-51.118019104003906,43.44959259033203,4.26011323928833,-7.347605228424072,-4.0094075202941895,-0.7077348232269287,-0.37876614928245544,-1.7346000671386719
-142.44520568847656,-51.11491012573242,44.13100051879883,5.075960159301758,-7.2197089195251465,-3.5132572650909424,-0.28283485770225525,-0.4370128810405731,-1.2806413173675537
-142.70623779296875,-51.129234313964844,44.57124710083008,5.5287251472473145,-7.228298664093018,-3.540858268737793,-0.12308686226606369,-0.4076700210571289,-1.043958306312561
-142.62754821777344,-51.10026550292969,44.66108703613281,6.9251909255981445,-5.923616409301758,-4.07774543762207,-0.02208133041858673,-0.3016209900379181,-0.6414214968681335
-142.97955322265625,-51.44715881347656,45.42903518676758,8.852412223815918,-5.4458160400390625,-4.447948455810547,0.15336981415748596,-0.20396436750888824,-0.45772022008895874
-144.2408447265625,-52.43610763549805,47.26911544799805,9.484458923339844,-5.083889007568359,-4.9612860679626465,0.25211867690086365,-0.1221601590514183,-1.225024938583374
-145.5985870361328,-53.38273239135742,49.28657150268555,8.563213348388672,-4.658298015594482,-5.175154209136963,0.22740645706653595,0.13675758242607117,-1.8582926988601685
-146.82044982910156,-53.816654205322266,51.48046875,7.59889030456543,-4.543776988983154,-5.068670749664307,0.4682355225086212,-0.12025387585163116,-2.0609917640686035
-147.79698181152344,-54.092247009277344,53.57634735107422,7.235394477844238,-4.26649284362793,-5.030270576477051,0.6941630244255066,-0.3830510973930359,-2.117356061935425
-148.30801391601562,-54.27645492553711,55.40702438354492,7.194394588470459,-3.6150712966918945,-5.218855381011963,1.0121675729751587,-0.5015798211097717,-2.025972366333008
-148.65794372558594,-54.45668029785156,57.03913116455078,7.483950138092041,-3.2847676277160645,-5.775198459625244,1.3707129955291748,-0.6105721592903137,-1.8562216758728027
-149.2893524169922,-54.695308685302734,58.56157302856445,7.818864822387695,-2.9685566425323486,-6.606047630310059,1.3352868556976318,-0.506028950214386,-1.756555199623108
-150.2361297607422,-54.900352478027344,60.192989349365234,8.62923526763916,-2.500411033630371,-7.049332618713379,1.0964821577072144,-0.5402315855026245,-1.640872597694397
-151.49765014648438,-55.36847686767578,62.09385681152344,9.527936935424805,-2.4433701038360596,-7.137004375457764,0.9060112237930298,-0.47500449419021606,-1.7260674238204956
-153.3362579345703,-56.13851547241211,64.47120666503906,9.690298080444336,-2.4660212993621826,-7.353135108947754,0.7094369530677795,-0.26369696855545044,-1.9782060384750366
-155.7253875732422,-56.95841598510742,67.31245422363281,8.671411514282227,-2.5251078605651855,-7.318643569946289,0.42335715889930725,-0.086637943983078,-2.44610595703125
-157.84988403320312,-57.71931838989258,69.94218444824219,7.201135158538818,-2.1513028144836426,-7.32957124710083,0.2593180537223816,-0.03928879275918007,-2.6223344802856445
-159.4641876220703,-58.430992126464844,72.0455093383789,6.231132507324219,-1.6623542308807373,-7.344046115875244,0.31880462169647217,0.21060600876808167,-2.631188154220581
-160.6874542236328,-58.77898406982422,73.41958618164062,6.144081115722656,-1.7722094058990479,-7.563782691955566,0.24815873801708221,0.20282280445098877,-2.258023500442505
-162.1353759765625,-58.96061706542969,74.6912841796875,6.661543369293213,-0.8737242817878723,-7.9869465827941895,-0.019454093649983406,0.16080999374389648,-1.7625229358673096
-164.5111083984375,-59.29984664916992,76.95415496826172,7.647114276885986,-0.9571316838264465,-7.746853828430176,-0.36304304003715515,-0.005716156214475632,-1.6912537813186646
-167.54608154296875,-59.92532730102539,80.08311462402344,7.8193678855896,-0.5059626698493958,-7.2028889656066895,-0.4217008352279663,0.17315194010734558,-2.1883628368377686
-170.4816436767578,-60.472957611083984,82.87117767333984,6.6115617752075195,-0.2052808403968811,-7.3681488037109375,-0.5234667062759399,0.22045601904392242,-2.455486297607422
-172.7690887451172,-61.014198303222656,84.61949157714844,5.6765055656433105,-0.6499601006507874,-7.139301300048828,-0.8005632162094116,0.44144824147224426,-2.295785665512085
-174.13035583496094,-61.303489685058594,85.327392578125,5.387618541717529,-0.009110977873206139,-6.675867557525635,-1.0448336601257324,0.5223013758659363,-1.7803971767425537
-175.07608032226562,-61.46002960205078,85.80862426757812,6.21679162979126,0.2118295580148697,-6.151749134063721,-1.0443224906921387,0.3836619257926941,-1.1706215143203735
-176.7115936279297,-61.79804992675781,87.3814697265625,8.507980346679688,-0.021973002701997757,-4.858197212219238,-0.9146586656570435,0.3980065882205963,-1.0390501022338867
-178.82974243164062,-62.08712387084961,89.66104888916016,8.567194938659668,0.19998501241207123,-5.203409671783447,-0.5694646239280701,0.4927328824996948,-1.4819252490997314
179.45639038085938,-62.260467529296875,91.08197021484375,7.49651575088501,1.015404462814331,-6.828553199768066,-0.5340259075164795,0.33424416184425354,-1.4563634395599365
177.3711395263672,-62.61705780029297,92.45897674560547,8.027474403381348,0.960468590259552,-7.341889381408691,-0.839779794216156,0.4675484001636505,-1.1881263256072998
174.42062377929688,-62.883811950683594,94.75809478759766,8.728331565856934,0.311918705701828,-6.48965311050415,-1.1993584632873535,0.5467446446418762,-1.3663790225982666
171.7779541015625,-62.91632843017578,97.07574462890625,8.108317375183105,-0.014098570682108402,-5.648438930511475,-1.224373459815979,0.5376354455947876,-1.6229956150054932
169.24586486816406,-63.109092712402344,99.34487915039062,7.2328596115112305,0.3953394889831543,-5.8067498207092285,-0.9912881851196289,0.29706963896751404,-1.569448471069336
166.02293395996094,-63.55609130859375,101.95036315917969,6.86346960067749,0.36825039982795715,-5.630392551422119,-1.132991909980774,0.8779513239860535,-1.7716805934906006
164.0158233642578,-63.455230712890625,103.24655151367188,5.9593071937561035,0.9207839369773865,-4.891502857208252,-1.405336856842041,0.6350757479667664,-1.639451503753662
163.44483947753906,-63.32883071899414,103.53218078613281,6.391620635986328,1.8048025369644165,-3.976752519607544,-1.2152334451675415,0.36242055892944336,-1.1461594104766846
163.36705017089844,-63.14091110229492,103.59896850585938,7.499908447265625,2.7180027961730957,-3.8770828247070312,-0.7466578483581543,0.14734433591365814,-0.7673467397689819
162.43838500976562,-62.99668502807617,104.27668762207031,8.589730262756348,2.6263785362243652,-4.810600280761719,-0.5052977204322815,-0.06862447410821915,-0.522759199142456
159.56532287597656,-63.028411865234375,106.47303009033203,9.45197582244873,2.170780658721924,-5.33170747756958,-0.8127613663673401,0.14988213777542114,-0.8295065760612488
156.0245361328125,-62.78216552734375,109.14395141601562,8.933547019958496,1.868255853652954,-4.9163947105407715,-1.2906519174575806,0.4174240827560425,-1.3236746788024902
153.10850524902344,-62.230613708496094,111.27037048339844,7.892518997192383,1.5894176959991455,-3.922168254852295,-1.550275206565857,0.15418094396591187,-1.6383503675460815
150.76966857910156,-61.93107604980469,113.0162353515625,7.169503211975098,1.7241250276565552,-2.9953792095184326,-1.5500112771987915,0.14514245092868805,-1.6372861862182617
148.66615295410156,-61.80507278442383,114.76146697998047,6.8343000411987305,0.7760502696037292,-2.094449043273926,-1.3932453393936157,0.2354002594947815,-1.5056198835372925
146.9919891357422,-61.629249572753906,116.35206604003906,6.806893825531006,1.6071525812149048,-1.3142194747924805,-1.1415926218032837,0.4587808847427368,-1.4862291812896729
146.25794982910156,-61.36857604980469,117.2992935180664,6.593903064727783,1.9817216396331787,-1.0317803621292114,-0.7255688905715942,0.2255522757768631,-1.302917718887329
145.62757873535156,-61.294166564941406,118.32869720458984,7.0780253410339355,2.5257654190063477,-1.1793553829193115,-0.25229406356811523,0.2930571436882019,-1.0915781259536743
144.6640167236328,-61.18217849731445,119.5094985961914,7.660848617553711,3.1267247200012207,-2.0042877197265625,0.0028994064778089523,0.3113660514354706,-1.0011279582977295
143.23907470703125,-61.07301330566406,120.86260223388672,7.93279504776001,3.3033230304718018,-2.5005626678466797,-0.1319485902786255,0.3953355848789215,-1.017138123512268
141.99546813964844,-60.86663818359375,122.03192138671875,8.096357345581055,3.7009429931640625,-2.4495785236358643,-0.28478625416755676,0.44746774435043335,-1.016614556312561
140.9860076904297,-60.50308609008789,123.108642578125,8.80545425415039,3.423469066619873,-1.8607923984527588,-0.23441612720489502,0.27725881338119507,-1.0039392709732056
139.65579223632812,-60.1304931640625,124.60858154296875,8.833366394042969,3.1580963134765625,-1.701517939567566,-0.17888982594013214,0.25584709644317627,-1.125890851020813
138.3748321533203,-59.88620376586914,126.1445541381836,7.932939529418945,2.895887851715088,-1.5181922912597656,-0.10563550144433975,0.35630714893341064,-1.2897443771362305
137.62745666503906,-59.85083770751953,127.2506332397461,7.1170477867126465,2.8809127807617188,-1.37471342086792,0.01287002582103014,0.46293962001800537,-1.1266521215438843
137.33682250976562,-59.822425842285156,128.04434204101562,6.99762487411499,3.347177743911743,-1.5140371322631836,0.2494065910577774,0.5008339285850525,-0.9240543842315674
137.11212158203125,-59.72767639160156,128.72549438476562,7.039671421051025,3.9137203693389893,-2.2823433876037598,0.4557323753833771,0.3976771831512451,-0.7494576573371887
136.39077758789062,-59.54703140258789,129.69741821289062,7.387236595153809,4.314709663391113,-2.9643714427948,0.42801377177238464,0.39029431343078613,-0.7266271114349365
135.38975524902344,-59.24189376831055,130.72381591796875,7.023377895355225,4.653144836425781,-3.4200503826141357,0.2321365922689438,0.37207502126693726,-0.8605920672416687
134.66683959960938,-58.974647521972656,131.28189086914062,6.139966011047363,4.901012420654297,-3.5237808227539062,-0.01075830403715372,0.28121742606163025,-0.8869806528091431
134.610595703125,-58.79338836669922,131.1236114501953,5.641995429992676,4.960567951202393,-3.2507576942443848,-0.1845691204071045,0.12529723346233368,-0.6515754461288452
135.16754150390625,-58.556129455566406,130.41429138183594,5.836141586303711,5.143965244293213,-3.091826915740967,-0.1619768887758255,-0.15787792205810547,-0.3543003797531128
135.7127227783203,-58.361427307128906,129.644775390625,6.102919101715088,5.025568008422852,-3.286708116531372,-0.11046615242958069,-0.4568973481655121,-0.12921032309532166
135.71063232421875,-58.47772979736328,129.19090270996094,6.317798137664795,4.490912914276123,-3.4718148708343506,-0.24600426852703094,-0.4279193580150604,0.045465536415576935
135.5398406982422,-58.791046142578125,128.7089385986328,6.432023525238037,4.23243522644043,-3.3084285259246826,-0.5430241823196411,-0.16473858058452606,0.27062320709228516
135.80096435546875,-59.01428985595703,127.75060272216797,6.273337364196777,3.994544267654419,-3.0431265830993652,-0.720242977142334,-0.16992856562137604,0.47442904114723206
136.025390625,-59.43877410888672,126.95159149169922,6.199686050415039,4.034189701080322,-2.9063355922698975,-0.7983099818229675,-0.31087857484817505,0.694496214389801
136.21839904785156,-60.11224365234375,126.4505615234375,6.169437408447266,3.8283820152282715,-2.356724977493286,-0.7251684069633484,0.18663670122623444,0.8190734386444092
137.4794921875,-60.47370147705078,124.90953063964844,5.7840800285339355,3.8586537837982178,-2.6288352012634277,-0.4978094696998596,0.05512285605072975,1.01025390625
138.96595764160156,-60.73495101928711,123.06266021728516,5.876777172088623,4.073041915893555,-3.0131404399871826,-0.35724934935569763,-0.30580902099609375,1.224278211593628
139.99713134765625,-60.9815673828125,121.5776138305664,6.298995018005371,4.044179439544678,-3.3947811126708984,-0.34412264823913574,-0.3407624661922455,1.283766269683838
140.31777954101562,-61.178531646728516,120.49083709716797,6.434396743774414,3.6635730266571045,-3.7828736305236816,-0.473517507314682,-0.4494445025920868,1.1912782192230225
139.93434143066406,-61.47004318237305,119.91353607177734,7.412287712097168,2.759359836578369,-3.3352091312408447,-0.964760422706604,-0.21124549210071564,1.0289816856384277
140.03826904296875,-61.924476623535156,119.1646728515625,7.9887800216674805,3.163464069366455,-2.3299338817596436,-1.062964677810669,-0.16274060308933258,0.8644084334373474
140.7277069091797,-62.64570236206055,118.12276458740234,8.385542869567871,2.1920206546783447,-1.6899291276931763,-0.8683729767799377,0.16236689686775208,1.1596490144729614
141.59902954101562,-63.15352249145508,117.1150131225586,8.901491165161133,2.7821404933929443,-1.3237026929855347,-0.6041629314422607,0.12083643674850464,1.1644166707992554
143.2600555419922,-63.48050308227539,115.25108337402344,8.797282218933105,3.2881526947021484,-1.670278549194336,-0.3043246269226074,0.24075572192668915,1.1857867240905762
149.17601013183594,-60.090538024902344,107.49949645996094,8.47592830657959,3.841702699661255,-2.3409619331359863,-0.30643346905708313,-0.5463149547576904,1.494469404220581
155.90963745117188,-51.57744216918945,96.84333038330078,5.162008762359619,1.2924846410751343,-6.059228420257568,-1.5871778726577759,-7.668054580688477,1.7427915334701538
159.64564514160156,-46.15068054199219,90.90017700195312,8.152697563171387,-0.06840330362319946,-2.9001924991607666,-2.17209529876709,-10.86701774597168,2.2169549465179443
162.42208862304688,-45.33718490600586,89.63013458251953,9.639674186706543,1.9654407501220703,-1.0349918603897095,-0.663788378238678,-8.146629333496094,2.2656471729278564
164.03050231933594,-46.17166519165039,91.31793212890625,10.064630508422852,4.434566020965576,-2.241508960723877,1.657631754875183,-4.501861572265625,1.1819007396697998
163.76010131835938,-47.23163604736328,93.64134216308594,9.134580612182617,4.772986888885498,-6.21925163269043,2.636373519897461,-1.5709272623062134,-0.1450871229171753
162.35092163085938,-46.96847915649414,94.22457122802734,7.090611934661865,2.275458812713623,-9.603727340698242,1.5612568855285645,-0.3214629888534546,-0.66168612241745
160.56585693359375,-45.71894836425781,92.92413330078125,5.761591911315918,0.1828026920557022,-10.031764030456543,-0.6097542643547058,-1.4630813598632812,-0.25933220982551575
158.90565490722656,-45.09274673461914,91.23057556152344,5.293031215667725,3.0623300075531006,-8.644923210144043,-2.593641757965088,-1.408018708229065,0.36046066880226135
158.384033203125,-44.31748962402344,89.53111267089844,5.765458106994629,1.3678463697433472,-5.900918483734131,-3.0308330059051514,-1.780385971069336,0.8950936198234558
158.2415313720703,-44.32439422607422,88.87001037597656,6.537471771240234,2.463923454284668,-4.01708459854126,-2.5638105869293213,-1.6292999982833862,0.9513359069824219
158.64202880859375,-45.3411865234375,88.9410400390625,6.533354759216309,2.874135971069336,-3.0265607833862305,-1.518166184425354,-0.4319915175437927,0.7287818789482117
159.89401245117188,-46.48917007446289,88.65091705322266,6.338968753814697,1.1716619729995728,-2.7904748916625977,-0.26797306537628174,0.49709293246269226,0.7762225270271301
161.3338623046875,-47.39402389526367,87.92951965332031,6.152351379394531,1.7295503616333008,-4.246053695678711,0.5644892454147339,0.8411021828651428,0.9830890893936157
162.40481567382812,-48.07131576538086,87.05128479003906,6.385347366333008,1.9161052703857422,-5.83559513092041,0.764818549156189,0.8746074438095093,1.1257413625717163
162.6959228515625,-49.12928771972656,86.59477996826172,7.168720722198486,1.451163649559021,-6.4721455574035645,0.5435685515403748,0.7715040445327759,1.209469199180603
161.9627227783203,-50.97368621826172,86.98506164550781,7.940450191497803,1.1584242582321167,-6.348256587982178,0.14255034923553467,1.7007726430892944,0.9834100604057312
161.14366149902344,-52.888755798339844,87.18391418457031,7.503131866455078,1.2692207098007202,-6.2043256759643555,-0.37609001994132996,2.2633347511291504,0.807712972164154
160.7371826171875,-55.012630462646484,86.90728759765625,7.591392993927002,1.4169769287109375,-5.628963470458984,-0.6503759622573853,2.665283679962158,1.0559126138687134
160.2661895751953,-57.14796829223633,86.73229217529297,8.181825637817383,0.7252774238586426,-5.0865797996521,-0.8155854940414429,3.0060136318206787,1.2468509674072266
159.7257537841797,-59.00144958496094,86.76941680908203,8.641792297363281,0.4956071376800537,-4.382719993591309,-0.9024125337600708,3.114081621170044,1.223986029624939
159.4514617919922,-60.48123550415039,86.72480773925781,8.697153091430664,0.6392560005187988,-3.9712765216827393,-0.801274299621582,2.939934015274048,1.1058783531188965
159.5456085205078,-61.62406539916992,86.36802673339844,8.697075843811035,0.6638323664665222,-3.781935214996338,-0.6462765336036682,2.580022096633911,1.057298183441162
159.6693572998047,-62.33930206298828,86.05973052978516,8.96450424194336,0.9589743614196777,-3.7459094524383545,-0.5268382430076599,2.1232404708862305,1.0305625200271606
159.46444702148438,-62.49899673461914,86.23316192626953,10.045000076293945,1.4225692749023438,-3.698397159576416,-0.36776602268218994,1.5384067296981812,0.702415406703949
159.06105041503906,-62.599708557128906,86.6256332397461,10.392189025878906,1.1944961547851562,-3.6510369777679443,-0.2473394125699997,0.8917421102523804,0.29725828766822815
158.62136840820312,-63.230224609375,87.03007507324219,9.99518871307373,1.0160669088363647,-3.477524995803833,-0.2174721211194992,0.9180411696434021,0.1761702001094818
158.32408142089844,-64.05528259277344,87.25373840332031,9.730171203613281,0.8920485973358154,-3.3490493297576904,-0.16829723119735718,1.1115556955337524,0.2205583155155182
157.78611755371094,-64.94889068603516,87.64276885986328,9.89271354675293,0.744568943977356,-3.551478624343872,-0.215576171875,1.205590844154358,0.32335492968559265
156.5780792236328,-65.90589904785156,88.7365951538086,10.28309154510498,1.0948766469955444,-3.656344175338745,-0.2742096185684204,1.4571396112442017,0.21147421002388
155.12274169921875,-66.86139678955078,90.14189910888672,10.318795204162598,0.9100595712661743,-3.609691858291626,-0.3153689503669739,1.5899300575256348,0.029504062607884407
153.61399841308594,-67.90348052978516,91.7161865234375,10.020097732543945,0.7961657643318176,-3.737647533416748,-0.2553802728652954,1.7843977212905884,-0.030940815806388855
152.2248992919922,-68.65387725830078,93.30284881591797,10.085686683654785,0.6774343848228455,-3.686617374420166,-0.15674546360969543,1.8965989351272583,-0.10816768556833267
151.6568603515625,-68.89630889892578,94.36122131347656,9.91415786743164,1.183110237121582,-3.6083016395568848,0.048812396824359894,1.5146950483322144,-0.24284476041793823
151.65321350097656,-69.03227233886719,95.16190338134766,9.651421546936035,0.6348459124565125,-3.25399112701416,0.5211204886436462,1.0641459226608276,-0.2638396620750427
151.66696166992188,-69.2164077758789,95.8953628540039,9.004673957824707,0.5789027810096741,-3.7032623291015625,0.824384868144989,0.8899567127227783,-0.3235689699649811
151.87362670898438,-69.4989242553711,96.18988037109375,8.402698516845703,1.0218639373779297,-4.049562931060791,0.9160507917404175,0.6680998206138611,-0.19826741516590118
151.39715576171875,-70.0162582397461,96.93030548095703,8.30228328704834,0.5893540382385254,-4.2674150466918945,0.7521734833717346,0.735507607460022,-0.05812150612473488
150.21463012695312,-70.68936157226562,98.24991607666016,8.135933876037598,0.6497094631195068,-3.988125801086426,0.5479982495307922,0.9345102906227112,-0.10280174016952515
148.98158264160156,-71.90685272216797,99.58197021484375,7.461269855499268,1.4831866025924683,-3.595470666885376,0.309303343296051,1.2025712728500366,-0.05425696820020676
147.6051025390625,-73.90896606445312,101.29196166992188,7.907644748687744,1.6591261625289917,-2.2855687141418457,0.29036131501197815,1.9394900798797607,0.3901664614677429
146.01097106933594,-75.74137878417969,103.34331512451172,8.124945640563965,1.6626650094985962,-1.6565898656845093,0.4823223054409027,2.6916604042053223,0.6499622464179993
145.0640106201172,-77.14740753173828,104.58648681640625,8.226563453674316,2.1486167907714844,-1.6084266901016235,0.4860180616378784,2.43502140045166,0.702383816242218
143.67111206054688,-78.75468444824219,106.1604232788086,7.861582279205322,1.6628679037094116,-1.4853965044021606,0.46025916934013367,2.5651373863220215,0.9134282469749451
143.14817810058594,-79.94580078125,106.57594299316406,7.678307056427002,0.11218924820423126,-1.7382006645202637,0.290639191865921,2.479564666748047,0.9590059518814087
142.39627075195312,-81.38008117675781,106.95294189453125,8.340786933898926,0.8777803778648376,-1.7996376752853394,-0.026141230016946793,1.8294626474380493,1.0926001071929932
137.20599365234375,-83.61156463623047,111.66891479492188,8.76724910736084,0.12394947558641434,-1.5881428718566895,-0.32523319125175476,2.699237585067749,1.3093767166137695
131.63406372070312,-85.15916442871094,116.74950408935547,10.19412612915039,-0.3627163767814636,-0.7744801640510559,-0.6086901426315308,2.7888023853302,1.4814465045928955
120.14860534667969,-86.2928237915039,128.07675170898438,10.78604507446289,-0.6432909965515137,0.3241916596889496,-0.609208345413208,2.411494016647339,1.1604613065719604
91.43448638916016,-87.57158660888672,156.96636962890625,9.766140937805176,-0.7193875908851624,0.8282893300056458,-0.33636853098869324,2.718283176422119,1.0548101663589478
45.98653793334961,-88.13240051269531,-157.2609100341797,9.451741218566895,-0.5391400456428528,0.7390759587287903,-0.044810447841882706,2.8544671535491943,1.4384675025939941
15.3168306350708,-87.72178649902344,-126.11888122558594,10.479397773742676,-0.20555564761161804,0.72568678855896,0.2439803183078766,2.2582623958587646,1.49599289894104
4.029309272766113,-86.49797821044922,-114.28924560546875,11.013376235961914,-0.6265684962272644,0.5108903646469116,0.5229533314704895,2.1846179962158203,1.2408015727996826
2.6312761306762695,-84.96355438232422,-112.37506103515625,10.627643585205078,-0.5265757441520691,-0.3438131511211395,0.633529007434845,2.349020004272461,0.9046006798744202
3.80350399017334,-83.5200424194336,-113.0064926147461,9.529348373413086,-0.173793226480484,-1.0164644718170166,0.7635653018951416,2.5269784927368164,0.42058852314949036
2.0090556144714355,-82.09537506103516,-110.90496063232422,7.868363857269287,0.11292362213134766,-1.7755613327026367,0.7950652837753296,2.3377907276153564,0.22304648160934448
-3.8452091217041016,-80.30107879638672,-105.28361511230469,6.83750057220459,0.8353592157363892,-2.2784528732299805,0.46862369775772095,2.697826623916626,0.5209851861000061
-11.184112548828125,-78.58307647705078,-98.70453643798828,6.884059429168701,0.8965563178062439,-1.7226821184158325,-0.18275628983974457,2.7379813194274902,1.2687605619430542
-16.15652847290039,-76.75669860839844,-94.77243041992188,7.990539073944092,0.7001753449440002,-0.47649872303009033,-0.8278119564056396,2.641383171081543,1.7610422372817993
-18.706798553466797,-74.86481475830078,-93.41442108154297,8.725892066955566,0.23541463911533356,0.8395271301269531,-1.2979507446289062,2.835143804550171,1.7185354232788086
-21.2207088470459,-73.09538269042969,-92.24798583984375,8.851634979248047,0.14693982899188995,2.0949902534484863,-1.6911094188690186,2.7690041065216064,1.6038755178451538
-24.410181045532227,-71.17245483398438,-90.58112335205078,8.872601509094238,-0.5604415535926819,3.1212973594665527,-2.041032075881958,2.7633891105651855,1.7186323404312134
-27.853635787963867,-69.14259338378906,-88.78325653076172,9.25722885131836,-0.7204792499542236,4.216947078704834,-2.440027952194214,2.7480480670928955,2.0268192291259766
-30.35124397277832,-67.11497497558594,-87.7165756225586,9.630851745605469,-1.237761378288269,5.39010763168335,-2.640544891357422,2.7271955013275146,2.229702949523926
-31.176576614379883,-65.05525970458984,-87.8867416381836,9.963027954101562,-2.035933494567871,6.3911004066467285,-2.417675018310547,2.7782318592071533,2.1351072788238525
-30.92946434020996,-63.04841232299805,-88.75830841064453,10.156926155090332,-2.3306076526641846,7.013181686401367,-1.9407906532287598,3.105097532272339,1.813019037246704
-30.49047088623047,-61.35871124267578,-89.54417419433594,10.152048110961914,-2.195502758026123,7.185622215270996,-1.4429388046264648,3.0220441818237305,1.5145641565322876
-29.340696334838867,-59.64990234375,-90.8814926147461,10.391626358032227,-2.41664457321167,7.437485694885254,-0.9594665169715881,2.9496560096740723,1.2246521711349487
-27.389970779418945,-57.89488983154297,-92.95296478271484,10.164567947387695,-2.8840880393981934,7.35569429397583,-0.5237605571746826,3.232802629470825,0.7509936690330505
-25.395410537719727,-56.29206848144531,-94.94480895996094,9.333759307861328,-2.9448189735412598,7.110989093780518,-0.156823992729187,3.2991182804107666,0.2456521987915039
-23.874359130859375,-54.5816764831543,-96.30390930175781,8.40428638458252,-2.816587209701538,6.7019829750061035,0.16199012100696564,3.2736828327178955,0.029546409845352173
-22.90804672241211,-52.71498489379883,-96.97917175292969,7.8692450523376465,-2.9699747562408447,6.373042106628418,0.3682366907596588,3.2946033477783203,0.21343894302845
-21.933971405029297,-50.87042999267578,-97.46635437011719,7.638697147369385,-2.913198947906494,6.119444370269775,0.5428508520126343,3.239063024520874,0.4529533088207245
-20.66849708557129,-48.899898529052734,-98.14846801757812,7.447448253631592,-3.3058245182037354,5.697710990905762,0.873142659664154,3.2232184410095215,0.48810043931007385
-19.664722442626953,-46.55145263671875,-98.98811340332031,7.298458576202393,-3.359103202819824,5.105162620544434,0.9708477258682251,3.493657112121582,0.47458580136299133
-19.305253982543945,-44.114688873291016,-99.7613296508789,6.877078056335449,-2.9703445434570312,4.741131782531738,0.5665245652198792,3.9109015464782715,0.4953933656215668
-19.2890625,-42.041725158691406,-100.29240417480469,6.365522861480713,-2.5080955028533936,5.119840145111084,0.0687514990568161,3.897688627243042,0.534994900226593
-19.193960189819336,-40.20795822143555,-100.64562225341797,5.960204601287842,-2.3401849269866943,5.946528434753418,-0.10406628251075745,3.6399614810943604,0.5515974760055542
-19.091503143310547,-38.34514617919922,-100.83256530761719,5.5984673500061035,-2.3179399967193604,6.402335166931152,-0.06162909418344498,3.424315929412842,0.608961284160614
-19.158689498901367,-36.20890808105469,-100.95844268798828,5.494697093963623,-2.169372797012329,6.7002692222595215,-0.06189727783203125,3.3641769886016846,0.7640601396560669
-19.36562156677246,-33.69623565673828,-101.32064819335938,5.583897590637207,-2.0679121017456055,6.919256687164307,-0.2369893342256546,3.6339173316955566,0.8981897830963135
-19.602767944335938,-31.053985595703125,-102.02921295166016,5.531100273132324,-1.913683295249939,7.326924800872803,-0.5420419573783875,4.032532691955566,0.8314345479011536
-19.744157791137695,-28.481595993041992,-102.96153259277344,5.211027145385742,-1.9772191047668457,7.942750453948975,-0.7823706865310669,4.285417556762695,0.6365144848823547
-19.74466323852539,-25.959896087646484,-104.03106689453125,4.731860637664795,-2.270723819732666,8.44672966003418,-0.8338886499404907,4.438145160675049,0.3889232277870178
-19.71259307861328,-23.53816795349121,-105.14192199707031,4.164969444274902,-2.4192166328430176,8.771112442016602,-0.8256626129150391,4.539700984954834,0.1698267012834549
-19.61529541015625,-21.3011531829834,-106.19776916503906,3.5145950317382812,-2.694561243057251,9.049429893493652,-0.7832679748535156,4.461284160614014,-0.01802375167608261
-19.468156814575195,-19.102035522460938,-107.0223617553711,2.8526217937469482,-3.1663999557495117,9.253036499023438,-0.5914593935012817,4.3185224533081055,-0.1091119721531868
-19.422386169433594,-16.705900192260742,-107.53556823730469,2.5142195224761963,-3.1748316287994385,9.26831340789795,-0.4387027621269226,4.203011989593506,0.08347859978675842
-19.41329574584961,-14.044027328491211,-107.92865753173828,2.506347179412842,-2.8583991527557373,9.104538917541504,-0.3303558826446533,4.336950778961182,0.38110676407814026
-19.436386108398438,-11.367942810058594,-108.38990783691406,2.706354856491089,-2.5232903957366943,9.00166130065918,-0.24846889078617096,4.4621477127075195,0.6102872490882874
-19.45917510986328,-8.936779022216797,-109.1292495727539,2.7694413661956787,-2.5648345947265625,9.008854866027832,-0.27945059537887573,4.534795761108398,0.5729053616523743
-19.326427459716797,-6.9733567237854,-110.06842041015625,2.3921937942504883,-2.9251668453216553,9.035377502441406,-0.24020299315452576,4.34312105178833,0.25118470191955566
-19.09670066833496,-5.338637828826904,-110.96974182128906,1.775986671447754,-3.165722608566284,8.930091857910156,-0.06068521365523338,3.9545655250549316,-0.07863110303878784
-18.98580551147461,-3.727595090866089,-111.77167510986328,1.2832056283950806,-3.1059138774871826,8.693556785583496,0.027284935116767883,3.589545488357544,-0.2260255217552185
-19.020061492919922,-2.0992023944854736,-112.47297668457031,0.7520182728767395,-3.2189931869506836,8.476449966430664,-0.016404027119278908,3.4707190990448,-0.26404404640197754
-19.223588943481445,-0.6926808953285217,-112.92453002929688,0.2611493170261383,-3.115086078643799,8.266168594360352,-0.08071298152208328,3.1972484588623047,-0.19249363243579865
-19.7069149017334,0.6061744093894958,-113.1772232055664,0.12340264022350311,-2.7047228813171387,8.459990501403809,-0.30546969175338745,2.8443095684051514,-0.009986353106796741
-20.268733978271484,1.7832192182540894,-113.35057067871094,0.11538244783878326,-2.485116958618164,9.045751571655273,-0.6080653071403503,2.63143253326416,0.16954927146434784
-20.58500099182129,2.7306528091430664,-113.50345611572266,0.2782805562019348,-2.2408480644226074,9.756049156188965,-0.6614781022071838,2.2409212589263916,0.2535485029220581
-20.661853790283203,3.7456963062286377,-113.84663391113281,0.5338844060897827,-2.206930637359619,10.302557945251465,-0.4825058579444885,2.0272858142852783,0.24747616052627563
-20.647165298461914,5.003198623657227,-114.57491302490234,0.6356453895568848,-2.3089168071746826,10.623007774353027,-0.2792145013809204,2.0768988132476807,0.0619659461081028
-20.598283767700195,6.451013565063477,-115.60536193847656,0.21075847744941711,-2.4789531230926514,10.580398559570312,-0.08994045853614807,2.4447286128997803,-0.2383333444595337
-20.548973083496094,7.956992149353027,-116.7150650024414,-0.42999616265296936,-2.7991554737091064,10.27518367767334,0.061059143394231796,2.6209561824798584,-0.4974713921546936
-20.54812240600586,9.765769958496094,-117.85684204101562,-1.014866828918457,-3.114424228668213,9.927350044250488,0.16367371380329132,2.953892230987549,-0.6271769404411316
-20.612770080566406,11.711527824401855,-118.87250518798828,-1.6708221435546875,-3.444451093673706,9.51267147064209,0.1998293697834015,3.3088042736053467,-0.6140199303627014
-20.746095657348633,13.566736221313477,-119.6458969116211,-2.039224147796631,-3.4677889347076416,9.141988754272461,0.18398213386535645,3.431523084640503,-0.45373743772506714
-20.985469818115234,15.358820915222168,-120.32295989990234,-2.2265541553497314,-3.383730411529541,8.942784309387207,0.08825577050447464,3.3667232990264893,-0.2501866817474365
-21.25904655456543,17.287960052490234,-121.15696716308594,-2.2812674045562744,-3.6965012550354004,9.089630126953125,-0.01567901112139225,3.390531539916992,-0.15503986179828644
-21.440227508544922,19.449859619140625,-122.20193481445312,-2.443950891494751,-4.038088798522949,9.147769927978516,0.04028283432126045,3.6161117553710938,-0.1807367205619812
-21.61219024658203,21.774627685546875,-123.38523864746094,-2.708005428314209,-3.9877777099609375,8.955219268798828,0.20040947198867798,3.9142343997955322,-0.21968331933021545
-21.895099639892578,24.092309951782227,-124.65159606933594,-3.138411521911621,-3.8238232135772705,8.653298377990723,0.26472532749176025,4.18073844909668,-0.28496018052101135
-22.139249801635742,26.253042221069336,-125.77839660644531,-3.673754930496216,-3.756965398788452,8.319154739379883,0.29900288581848145,4.240742206573486,-0.3330959677696228
-21.98926544189453,27.972768783569336,-126.33124542236328,-4.114641189575195,-3.432314872741699,8.00959587097168,0.3724471628665924,4.099384307861328,-0.19362112879753113
-21.23012351989746,29.479263305664062,-126.33525085449219,-4.977056980133057,-3.32599139213562,8.872949600219727,0.638900876045227,3.2401649951934814,0.18291428685188293
-20.414386749267578,31.515138626098633,-126.5346908569336,-4.493613243103027,-3.25077223777771,8.611272811889648,1.0918984413146973,3.297293186187744,0.5542157292366028
-19.999547958374023,33.084938049316406,-126.9781494140625,-4.061640739440918,-3.3379030227661133,7.5507121086120605,1.1720564365386963,3.3630902767181396,0.5810718536376953
-19.759098052978516,33.88348388671875,-127.49764251708984,-4.340339660644531,-3.295783281326294,6.78314208984375,1.0587751865386963,2.7277719974517822,0.29980334639549255
-19.34402084350586,34.462364196777344,-127.81349182128906,-4.72585391998291,-3.3414814472198486,7.147522449493408,1.0223051309585571,2.204737663269043,0.0343310721218586
-18.82674789428711,34.82529830932617,-127.66283416748047,-5.035848617553711,-3.2196812629699707,6.565346717834473,1.0613898038864136,1.6294902563095093,0.1626913845539093
-18.703920364379883,34.72555160522461,-127.39401245117188,-5.099166393280029,-2.5494539737701416,6.028897762298584,0.7217317223548889,1.0968828201293945,0.2696100175380707
-18.725616455078125,34.21282958984375,-127.05269622802734,-5.329954624176025,-2.409177303314209,6.531156063079834,0.29239216446876526,0.23674404621124268,0.20032259821891785
-18.8249568939209,33.98313522338867,-126.816162109375,-5.434575080871582,-2.6595520973205566,7.037352561950684,0.05923047289252281,-0.15071561932563782,0.24321185052394867
-19.06780242919922,33.949378967285156,-126.89070892333984,-4.837788105010986,-2.775125503540039,7.356916427612305,-0.168548583984375,-0.10749739408493042,0.1498228758573532
-19.205162048339844,33.784385681152344,-127.12159729003906,-5.014683246612549,-2.785768508911133,7.714024066925049,-0.12167544662952423,-0.06876439601182938,-0.029546767473220825
-19.373281478881836,33.60403823852539,-127.3724136352539,-5.0783867835998535,-2.9099597930908203,7.511834621429443,-0.059944406151771545,-0.2053835242986679,-0.23214863240718842
-19.542638778686523,33.661075592041016,-127.5332260131836,-5.12572717666626,-3.0743842124938965,7.600666522979736,-0.11045675724744797,-0.044385723769664764,-0.24562038481235504
-19.60015296936035,33.63174819946289,-127.5786361694336,-5.319738864898682,-2.9505910873413086,7.6035356521606445,-0.08686968684196472,0.007446669973433018,-0.17479215562343597
-19.649982452392578,33.48181915283203,-127.61275482177734,-5.258906841278076,-2.8206138610839844,7.5567779541015625,-0.07779860496520996,-0.08131416887044907,-0.15085119009017944
-19.67963981628418,33.30595779418945,-127.6431884765625,-5.326337814331055,-3.0539803504943848,7.52197790145874,-0.06128736585378647,-0.1443457156419754,-0.1589786559343338
-19.544557571411133,33.091278076171875,-127.54867553710938,-6.016271114349365,-3.2018699645996094,8.030186653137207,-0.03689491003751755,-0.214378222823143,-0.13725239038467407
-18.949451446533203,32.82496643066406,-127.12879943847656,-6.594236850738525,-3.0333714485168457,8.68072509765625,0.12322767078876495,-0.3326849937438965,-0.017790136858820915
-17.886133193969727,32.49747085571289,-126.32085418701172,-7.120571136474609,-2.935971736907959,9.23194694519043,0.48148587346076965,-0.5270966291427612,0.30811527371406555
-16.652328491210938,32.10855484008789,-125.44168853759766,-6.344198226928711,-2.5621461868286133,9.088282585144043,0.7365263104438782,-0.7276430130004883,0.621241569519043
-15.144972801208496,31.83464813232422,-124.70404052734375,-6.224903583526611,-2.77660870552063,9.682860374450684,1.078112244606018,-0.8384552001953125,0.723735511302948
-13.36779499053955,31.762672424316406,-123.92479705810547,-6.164360046386719,-3.3103044033050537,9.358850479125977,1.6093755960464478,-0.6493367552757263,0.8189219236373901
-11.453184127807617,31.50435447692871,-122.79456329345703,-6.163890361785889,-3.13120174407959,8.644196510314941,1.8514262437820435,-0.5931390523910522,1.0068541765213013
-9.068412780761719,31.19972801208496,-121.2665023803711,-6.3912787437438965,-2.684877872467041,9.406193733215332,2.063446521759033,-0.863303005695343,1.3608282804489136
-6.323062896728516,31.574222564697266,-119.64523315429688,-5.849120140075684,-2.656052589416504,9.548340797424316,2.566740036010742,-0.6724767088890076,1.7845206260681152
-3.996654510498047,32.329193115234375,-118.11058044433594,-4.776660919189453,-2.425661325454712,8.326434135437012,2.805797815322876,0.1262347251176834,2.073286533355713
-2.60788893699646,32.558868408203125,-116.88935852050781,-4.224845886230469,-2.0214927196502686,6.676118850708008,2.374070882797241,0.301378071308136,2.136737585067749
-1.7090122699737549,32.73660659790039,-115.97016906738281,-3.7933237552642822,-1.781487226486206,6.980809688568115,1.708226203918457,0.09737091511487961,1.76736319065094
-0.5907925963401794,32.92387008666992,-114.87907409667969,-4.519461631774902,-1.589279055595398,7.903271675109863,1.378713846206665,0.44789835810661316,1.7289950847625732
0.6394150257110596,32.49953842163086,-113.9236068725586,-4.098020553588867,-0.8896511793136597,8.29769515991211,1.24058997631073,-0.06914784759283066,1.658801555633545
2.2741081714630127,32.077476501464844,-113.08780670166016,-4.363071441650391,-0.4443609118461609,9.465575218200684,1.4052438735961914,-0.2287941724061966,1.4627444744110107
4.3228983879089355,31.70413589477539,-112.0847396850586,-4.582526683807373,-0.3622567355632782,9.729778289794922,1.9197052717208862,-0.5366694927215576,1.4463064670562744
6.0296711921691895,31.549320220947266,-110.9783935546875,-4.308171272277832,-0.16303232312202454,8.609490394592285,2.1505305767059326,-0.2428189218044281,1.5331138372421265
7.061891555786133,30.836753845214844,-110.06639862060547,-5.032784938812256,0.15520639717578888,7.615035057067871,1.7308939695358276,-0.4112527668476105,1.5913803577423096
8.135907173156738,29.954030990600586,-109.29852294921875,-5.246588706970215,-0.21887703239917755,8.91818904876709,1.4061180353164673,-0.9278131723403931,1.429529070854187
9.72686767578125,29.29268455505371,-108.27422332763672,-5.757794380187988,0.10329025238752365,9.59264850616455,1.5443451404571533,-0.8636940121650696,1.4938925504684448
11.619878768920898,28.483440399169922,-107.02149963378906,-6.559330940246582,0.8408617377281189,10.067444801330566,1.757717251777649,-0.961574912071228,1.6582201719284058
13.607475280761719,27.62447166442871,-105.58224487304688,-6.792064666748047,0.8291524052619934,9.954814910888672,2.0406382083892822,-0.935175359249115,1.9828722476959229
15.153800964355469,26.70311737060547,-104.30686950683594,-5.784110069274902,1.1265689134597778,8.848773956298828,2.0038256645202637,-1.0083707571029663,2.176830291748047
16.496036529541016,25.853221893310547,-103.13207244873047,-5.77804708480835,1.4843705892562866,9.001946449279785,1.7251112461090088,-1.0039054155349731,2.124863386154175
17.99758529663086,25.04576873779297,-101.9166259765625,-5.631187915802002,1.5496867895126343,9.253714561462402,1.7210315465927124,-0.9431788921356201,2.224804639816284
19.2679443359375,24.20485496520996,-100.99322509765625,-4.598460674285889,1.6371461153030396,8.53624153137207,1.7157829999923706,-0.84527987241745,2.1544103622436523
19.999826431274414,22.74661636352539,-100.89420318603516,-4.022701740264893,2.008635997772217,7.983892440795898,1.5556453466415405,-1.0215511322021484,1.9360069036483765
20.699499130249023,21.2810115814209,-101.31449890136719,-2.9705796241760254,2.840883731842041,8.582194328308105,1.3881745338439941,-2.170252561569214,1.2184423208236694
22.274511337280273,20.711118698120117,-100.97377014160156,-4.60881233215332,2.8025431632995605,10.43946647644043,1.7258501052856445,-1.472873330116272,0.9325288534164429
23.940702438354492,19.59258270263672,-100.34576416015625,-4.697568893432617,3.215822219848633,9.264753341674805,2.201490879058838,-1.4042184352874756,1.207206130027771
25.02918243408203,18.23326873779297,-99.71842956542969,-4.408254623413086,3.2633450031280518,8.389205932617188,2.053727149963379,-1.4626821279525757,1.4597952365875244
25.77849769592285,16.743419647216797,-99.39593505859375,-3.123467445373535,3.829105854034424,7.972622871398926,1.6946407556533813,-1.689164638519287,1.6723568439483643
27.094545364379883,15.68028450012207,-98.91393280029297,-2.8807942867279053,4.185224533081055,9.437827110290527,1.5049822330474854,-1.9143069982528687,1.3734018802642822
29.324594497680664,14.807536125183105,-97.86923217773438,-4.9220170974731445,3.103410243988037,11.225728988647461,2.276535749435425,-1.0759681463241577,1.8389534950256348
30.978347778320312,13.770901679992676,-97.5125503540039,-2.354581117630005,3.730276107788086,8.856454849243164,2.6093881130218506,-1.3442225456237793,1.8680349588394165
32.497737884521484,13.444574356079102,-96.91099548339844,-2.1646759510040283,3.488002300262451,8.357022285461426,2.417987823486328,-0.9867821335792542,1.4013348817825317
34.4815559387207,12.908002853393555,-95.56096649169922,-3.8093552589416504,3.9885823726654053,9.223084449768066,2.6035823822021484,-0.2904658019542694,1.6539883613586426
36.31015396118164,11.829222679138184,-94.29960632324219,-3.9056942462921143,4.23999547958374,8.672440528869629,2.723541736602783,-0.22016564011573792,2.221806287765503
37.90304183959961,10.98512077331543,-93.27022552490234,-2.083092451095581,4.526888847351074,8.010927200317383,2.60379695892334,-0.38876572251319885,2.287942886352539
39.64548110961914,10.62935733795166,-91.99535369873047,-1.7900004386901855,4.679968357086182,8.289679527282715,2.5623416900634766,0.04267245903611183,2.2253310680389404
41.267417907714844,10.367635726928711,-90.77957916259766,-0.9433256387710571,4.770834445953369,7.156369686126709,2.6571807861328125,0.4515760838985443,2.1851696968078613
42.30492401123047,10.01685619354248,-89.93467712402344,-0.0631578266620636,5.454866886138916,5.492249965667725,2.3427743911743164,0.6006901264190674,1.951332688331604
43.2136116027832,9.368355751037598,-89.33624267578125,-0.23228314518928528,6.633742809295654,5.76038932800293,1.8665969371795654,0.3573068082332611,1.7408146858215332
44.50726318359375,8.666899681091309,-88.70542907714844,-0.6154555082321167,6.641592025756836,7.068044662475586,1.90318763256073,0.09989398717880249,1.7348697185516357
45.7520751953125,8.192437171936035,-88.18650817871094,0.03899979963898659,6.68544864654541,6.381780624389648,2.0669617652893066,0.12716032564640045,1.6339747905731201
46.61289596557617,7.787064552307129,-88.01524353027344,0.6777421832084656,6.998076915740967,5.310423851013184,1.884257197380066,0.031119344756007195,1.3255116939544678
47.32548141479492,7.283832550048828,-88.0831069946289,0.5036900043487549,7.3765082359313965,5.217221736907959,1.654491662979126,-0.17432142794132233,1.0244238376617432
47.967594146728516,6.738250255584717,-88.33281707763672,0.20347921550273895,7.445170879364014,5.658785343170166,1.5019978284835815,-0.4747436046600342,0.8584504127502441
48.608787536621094,6.37619161605835,-88.72897338867188,0.01534806378185749,7.348663330078125,6.028557300567627,1.3396470546722412,-0.6580598950386047,0.5703608989715576
49.40293502807617,6.106075286865234,-89.04180145263672,-0.6310649514198303,7.018722057342529,6.643917560577393,1.372588872909546,-0.7429777383804321,0.2974632680416107
50.14979553222656,5.795368671417236,-89.10784149169922,-1.0776984691619873,6.772158145904541,6.301161766052246,1.4233886003494263,-0.625116229057312,0.2723408043384552
50.69940185546875,5.318814754486084,-89.1102294921875,-1.0324296951293945,6.9373698234558105,5.7250447273254395,1.2709070444107056,-0.5533190965652466,0.37067610025405884
51.24188995361328,4.681763648986816,-89.1573257446289,-1.2824264764785767,7.296247959136963,6.139533996582031,1.1168389320373535,-0.6073773503303528,0.5418243408203125
51.85004806518555,4.030951976776123,-89.44165802001953,-0.7028844952583313,7.517067909240723,6.0891804695129395,1.112804889678955,-0.7142529487609863,0.6396520733833313
52.43986511230469,3.5078506469726562,-89.99190521240234,-0.5452502369880676,7.28464937210083,6.259706020355225,1.1091560125350952,-0.9881876707077026,0.48312386870384216
53.070735931396484,3.082101345062256,-90.52880096435547,-0.35832279920578003,7.563901901245117,6.06732702255249,1.1080437898635864,-1.038402795791626,0.2844967246055603
53.76609802246094,2.5766608715057373,-91.00873565673828,-0.7037698030471802,7.530074596405029,6.128034591674805,1.1669433116912842,-1.1385151147842407,0.22384420037269592
54.329105377197266,2.1721363067626953,-91.29448699951172,-0.36768749356269836,7.369482517242432,5.59203577041626,1.204415202140808,-1.0944513082504272,0.27051258087158203
54.6593132019043,1.8879343271255493,-91.52886962890625,-0.11949466913938522,7.859014511108398,5.0431599617004395,0.9710897207260132,-0.8614341616630554,0.23512059450149536
55.084327697753906,1.4923431873321533,-91.81443786621094,-0.5022792816162109,7.8354902267456055,5.661202430725098,0.8297794461250305,-0.8528702259063721,0.20287847518920898
55.63559341430664,1.0467027425765991,-91.96409606933594,-0.4854030907154083,7.975875377655029,5.963963508605957,0.9042670726776123,-0.8119532465934753,0.30885034799575806
56.091793060302734,0.6819507479667664,-92.13379669189453,-0.13465119898319244,8.177759170532227,5.543024063110352,0.897592306137085,-0.697942852973938,0.3882567584514618
56.53277587890625,0.355465829372406,-92.48104858398438,-0.01756386086344719,8.375824928283691,5.69743013381958,0.8113593459129333,-0.7164299488067627,0.28398314118385315
57.1429443359375,-0.012359227053821087,-92.81778717041016,-0.20890508592128754,8.367904663085938,6.197961807250977,0.8688958287239075,-0.7991868257522583,0.24124884605407715
57.76161193847656,-0.25980594754219055,-93.0489501953125,0.09905048459768295,8.161331176757812,5.930431365966797,1.0162818431854248,-0.7579469084739685,0.2586648464202881
58.21166229248047,-0.3271541893482208,-93.31216430664062,0.37763604521751404,8.611200332641602,5.426246166229248,0.9372837543487549,-0.6118762493133545,0.1330101639032364
58.888694763183594,-0.43992483615875244,-93.5319595336914,-0.21663226187229156,8.54513168334961,6.389490604400635,0.8694773316383362,-0.5941145420074463,-0.01623004861176014
59.94404983520508,-0.6822291016578674,-93.50961303710938,-0.6449159979820251,8.161222457885742,6.664460182189941,1.255078673362732,-0.44334107637405396,0.11688724160194397
60.810874938964844,-0.9260672330856323,-93.44445037841797,-0.22692379355430603,8.01186466217041,5.493596076965332,1.4624146223068237,-0.33329594135284424,0.25858810544013977
61.37067794799805,-1.1254143714904785,-93.4372329711914,0.2089221328496933,8.316085815429688,4.376334190368652,1.31316077709198,-0.2231745570898056,0.2897182106971741
61.87968444824219,-1.3128584623336792,-93.40233612060547,0.20425105094909668,8.366676330566406,4.625475883483887,1.1328637599945068,-0.2676745355129242,0.2823569178581238
62.47176742553711,-1.4506361484527588,-93.26055145263672,0.40885183215141296,8.367868423461914,4.6742048263549805,1.0773221254348755,-0.057057589292526245,0.3230709433555603
63.02405548095703,-1.555953025817871,-93.31256103515625,0.8178367018699646,8.573641777038574,3.929344892501831,1.1004737615585327,-0.10389742255210876,0.2924836575984955
63.3255615234375,-1.5454819202423096,-93.43297576904297,1.1346802711486816,8.648005485534668,3.1731221675872803,0.9452987909317017,-0.11580295860767365,0.15175868570804596
63.5554313659668,-1.5888322591781616,-93.62904357910156,0.7525722980499268,8.369498252868652,3.4385826587677,0.6820114850997925,-0.16349180042743683,0.02877606451511383
63.879981994628906,-1.6863917112350464,-93.88520050048828,0.6986556053161621,8.526375770568848,3.4556772708892822,0.6610265374183655,-0.28875458240509033,0.03554102033376694
64.04978942871094,-1.7062010765075684,-94.1855697631836,0.823038637638092,7.972125053405762,3.101651906967163,0.5795995593070984,-0.3489419221878052,-0.05443069711327553
63.95028305053711,-1.7557580471038818,-94.51752471923828,0.8292422890663147,8.275032997131348,2.704871892929077,0.3673481345176697,-0.4226328134536743,-0.11122874170541763
63.71126174926758,-1.8695632219314575,-94.8470458984375,0.6167086958885193,8.696037292480469,3.0078768730163574,0.025173859670758247,-0.48160940408706665,-0.12290117889642715
63.60325622558594,-2.049466609954834,-95.16912841796875,0.4557708203792572,8.491842269897461,3.7262485027313232,-0.09012309461832047,-0.5413967370986938,-0.06846421957015991
63.49076843261719,-2.185953378677368,-95.5052490234375,0.6246702671051025,8.689592361450195,3.7616829872131348,-0.09026874601840973,-0.580321729183197,-0.025038082152605057
63.28491973876953,-2.202535390853882,-95.87405395507812,0.834958553314209,8.803662300109863,3.8794138431549072,-0.21588017046451569,-0.5893948674201965,-0.09287498891353607
63.168357849121094,-2.167818069458008,-96.2410888671875,0.6989473104476929,8.68317699432373,4.254902362823486,-0.2552465498447418,-0.5763492584228516,-0.1977659910917282
63.10004806518555,-2.197296142578125,-96.63883972167969,0.5193775296211243,8.8627290725708,4.168688774108887,-0.18511781096458435,-0.55477374792099,-0.24011661112308502
62.97568893432617,-2.323300838470459,-97.06777954101562,0.2717435359954834,8.964516639709473,4.371511936187744,-0.21317869424819946,-0.6613644957542419,-0.22661587595939636
62.83403396606445,-2.408062219619751,-97.3887939453125,0.30472487211227417,8.870256423950195,4.558783531188965,-0.2171994000673294,-0.6569283604621887,-0.1586022973060608
62.65920639038086,-2.3806986808776855,-97.64897918701172,0.42519816756248474,8.772777557373047,4.505049705505371,-0.2653123438358307,-0.5670896768569946,-0.19330047070980072
62.47132110595703,-2.3588318824768066,-97.86161804199219,0.33879220485687256,8.746055603027344,4.433253765106201,-0.2733961045742035,-0.4685344696044922,-0.21849563717842102
62.184165954589844,-2.3699746131896973,-98.06275177001953,0.39758551120758057,8.879545211791992,4.036046504974365,-0.3327076733112335,-0.40748584270477295,-0.18211032450199127
61.7944221496582,-2.3618240356445312,-98.3033447265625,0.5038467049598694,8.79035472869873,3.891038417816162,-0.454858660697937,-0.37748318910598755,-0.18485106527805328
61.40922164916992,-2.347649574279785,-98.59989166259766,0.5177658796310425,8.849627494812012,4.130979537963867,-0.5741497874259949,-0.3904954195022583,-0.2099868804216385
61.05855941772461,-2.293363571166992,-98.89933776855469,0.5199277997016907,8.533661842346191,4.425489902496338,-0.5732191801071167,-0.4270794689655304,-0.2452908307313919
60.60335922241211,-2.1875836849212646,-99.14328002929688,0.517510175704956,8.720418930053711,4.260958671569824,-0.6331985592842102,-0.3731301426887512,-0.3005746901035309
60.196903228759766,-2.121044874191284,-99.30683898925781,0.1234227642416954,8.659270286560059,5.152327537536621,-0.7498016953468323,-0.33289822936058044,-0.3163977265357971
59.94233322143555,-2.0975072383880615,-99.32485961914062,-0.04835322126746178,8.396051406860352,5.524866580963135,-0.6024882793426514,-0.22763358056545258,-0.22917473316192627
59.45664596557617,-2.033282518386841,-99.29268646240234,0.3605307638645172,8.411600112915039,4.512760639190674,-0.5916151404380798,-0.10885873436927795,-0.14076849818229675
58.58463668823242,-1.8654392957687378,-99.30691528320312,0.9576991200447083,8.552449226379395,3.2417993545532227,-0.8554240465164185,-0.009927558712661266,-0.15999054908752441
57.258949279785156,-1.637017846107483,-99.475830078125,1.566705346107483,8.660662651062012,1.8055872917175293,-1.2584619522094727,0.03407341241836548,-0.2484215646982193
55.07413101196289,-1.2851393222808838,-100.08671569824219,2.03079891204834,9.490376472473145,1.0613425970077515,-1.9208506345748901,-0.07879190146923065,-0.40943393111228943
52.778663635253906,-0.7848115563392639,-100.95030975341797,1.5420900583267212,8.993945121765137,3.360992193222046,-3.1821303367614746,-0.4267396628856659,-0.9427582621574402
52.246665954589844,-0.4912469685077667,-101.23329162597656,-0.847200870513916,6.66370153427124,9.598670959472656,-2.7789828777313232,-0.3603585362434387,-1.0525654554367065
52.079742431640625,-0.3659486770629883,-101.16384887695312,-0.7933450937271118,6.920638084411621,8.161065101623535,-1.337639331817627,-0.15524354577064514,-0.601187527179718
50.54549026489258,0.006908736657351255,-101.20238494873047,0.04648716002702713,7.8079142570495605,5.180057525634766,-1.7315855026245117,0.02447940595448017,-0.5548732280731201
49.02269744873047,0.40773501992225647,-101.16380310058594,-0.5172540545463562,7.053354263305664,6.3976287841796875,-2.283465623855591,0.18456992506980896,-0.6047799587249756
47.81386947631836,0.7308244109153748,-100.99634552001953,-0.42579159140586853,6.830558776855469,5.744114398956299,-2.105713367462158,0.35068997740745544,-0.4474613070487976
46.15787124633789,1.122133493423462,-100.88681030273438,0.4439559876918793,7.110830307006836,3.423398733139038,-2.2889621257781982,0.4355906546115875,-0.3953205943107605
43.833702087402344,1.624631404876709,-100.87894439697266,1.4757587909698486,6.759724140167236,1.021874189376831,-2.711069345474243,0.5284126996994019,-0.4254148304462433
40.09492111206055,2.207352638244629,-101.3163833618164,2.9981791973114014,7.268937110900879,-1.6851227283477783,-3.6381189823150635,0.543472409248352,-0.5837829113006592
34.08711624145508,2.9253039360046387,-102.62935638427734,4.643951892852783,7.677832126617432,-3.3425729274749756,-5.581209659576416,0.23606526851654053,-1.0854929685592651
25.266361236572266,4.100667953491211,-105.48706817626953,6.2345805168151855,8.61705493927002,-2.561375617980957,-8.459990501403809,-0.0812988206744194,-2.0423264503479004
14.703414916992188,5.143062114715576,-110.60421752929688,4.821037292480469,5.2742438316345215,3.0186448097229004,-12.234710693359375,-0.39016464352607727,-4.348807334899902
8.35876178741455,5.234400272369385,-115.40130615234375,0.6714136600494385,-2.6413450241088867,11.355803489685059,-13.93688678741455,-1.2293710708618164,-6.695029258728027
9.775607109069824,6.121856689453125,-116.7447738647461,-6.4093918800354,-7.311514854431152,26.609155654907227,-8.647146224975586,-1.0521448850631714,-5.741527557373047
11.68740177154541,7.182815074920654,-116.47940826416016,-7.628208160400391,-3.7931652069091797,20.669321060180664,-2.5652084350585938,0.5798624753952026,-3.489616632461548
9.440211296081543,7.071595668792725,-116.3282699584961,-6.426170349121094,-3.338895082473755,11.095688819885254,-2.6687116622924805,0.017854934558272362,-2.2924141883850098
6.471549034118652,7.402395248413086,-114.93547058105469,-6.747722625732422,-3.7172913551330566,10.399581909179688,-3.87136173248291,0.49698302149772644,-0.8689790368080139
3.9955761432647705,7.68184232711792,-112.86549377441406,-5.163931846618652,-1.8205235004425049,10.12405776977539,-4.263504505157471,0.5522569417953491,0.8650760054588318
1.197202444076538,8.322509765625,-111.48208618164062,-1.2576667070388794,0.48055052757263184,7.870098114013672,-4.376311302185059,0.896186351776123,1.7955442667007446
-2.919468641281128,8.828927040100098,-112.0718765258789,1.6758339405059814,2.902444839477539,6.704498767852783,-5.096048831939697,0.9625427722930908,1.3828331232070923
-7.353700160980225,9.151229858398438,-114.615234375,2.8954720497131348,1.5079296827316284,7.95835542678833,-6.317689895629883,0.7755979895591736,-0.5891165137290955
-9.979243278503418,9.471969604492188,-117.3973617553711,1.457715630531311,-0.30136561393737793,12.092931747436523,-5.853701591491699,0.9203299880027771,-2.316495895385742
-11.486433982849121,9.553184509277344,-119.49597930908203,-0.9211417436599731,-0.4451363682746887,12.583298683166504,-4.276810169219971,0.9245205521583557,-2.9610304832458496
-13.583674430847168,9.437796592712402,-120.9063720703125,-1.9574215412139893,-1.7287213802337646,9.96611499786377,-3.606796979904175,0.6677576303482056,-2.911181688308716
-16.78908920288086,9.431227684020996,-121.9695053100586,-1.6695187091827393,-2.392244338989258,6.951259136199951,-3.9356133937835693,0.5572425127029419,-2.453920841217041
-20.571693420410156,9.293598175048828,-123.11809539794922,-1.3178834915161133,-2.451314687728882,6.547833442687988,-4.961008071899414,0.6367818713188171,-2.210742473602295
-23.700721740722656,8.875978469848633,-124.36299133300781,-0.9988558292388916,-3.869598627090454,8.538683891296387,-5.243387222290039,0.40013688802719116,-2.1858365535736084
-26.677248001098633,8.454012870788574,-125.88233947753906,0.13858306407928467,-3.749053955078125,7.6511406898498535,-4.843676567077637,0.3877200782299042,-2.258497714996338
-30.63376808166504,7.858504772186279,-127.8655014038086,1.2531355619430542,-3.404940366744995,5.273631572723389,-5.192659854888916,0.44096118211746216,-2.614590644836426
-35.18525695800781,6.805346488952637,-130.2895050048828,1.916355848312378,-2.9684700965881348,4.909473896026611,-6.061672210693359,0.6646602749824524,-3.1501598358154297
-38.229042053222656,5.024472236633301,-132.60597229003906,0.3654196560382843,-4.309889793395996,8.826845169067383,-6.52186918258667,0.5138309597969055,-4.00032901763916
-38.48384094238281,3.3864049911499023,-133.98782348632812,-2.547316312789917,-8.844225883483887,12.903748512268066,-4.448145866394043,0.0038374632131308317,-4.210216522216797
-38.73076629638672,2.3712024688720703,-134.28346252441406,-3.7237000465393066,-9.479692459106445,9.448189735412598,-2.3724796772003174,-0.41791772842407227,-3.4089813232421875
-40.648582458496094,1.773366093635559,-133.87159729003906,-3.2138419151306152,-9.189647674560547,5.867897987365723,-2.508772373199463,-0.7284860014915466,-2.2676191329956055
-43.058509826660156,1.2926137447357178,-133.36050415039062,-1.8292135000228882,-8.658512115478516,5.532474040985107,-3.2632179260253906,-0.8804113864898682,-1.2356237173080444
-45.17744064331055,0.40247049927711487,-133.3749542236328,0.5228857398033142,-7.766530513763428,6.394025802612305,-3.4923324584960938,-0.9782819151878357,-0.9259682893753052
-47.21028137207031,-0.86563640832901,-134.1919708251953,1.8656065464019775,-6.876260757446289,7.4198760986328125,-3.4699153900146484,-0.969546377658844,-1.4034658670425415
-49.09862518310547,-2.1361312866210938,-135.49688720703125,1.596215009689331,-6.651829242706299,8.988889694213867,-3.5599162578582764,-0.5405665636062622,-2.1051971912384033
-50.05116653442383,-3.238011360168457,-136.50770568847656,-0.36333560943603516,-7.3983612060546875,11.048809051513672,-3.2328503131866455,-0.24979181587696075,-2.4974489212036133
-49.803958892822266,-3.7698974609375,-136.78785705566406,-2.3139498233795166,-8.653538703918457,12.319984436035156,-2.050936698913574,-0.2289804071187973,-2.227323055267334
-49.20112609863281,-3.6743125915527344,-136.35366821289062,-3.116274118423462,-9.112918853759766,11.149250030517578,-0.7774108648300171,-0.2784633934497833,-1.2875076532363892
-48.83967971801758,-3.4180500507354736,-135.67941284179688,-2.280364751815796,-9.012919425964355,9.423630714416504,-0.17747712135314941,-0.4290660321712494,-0.31192636489868164
-48.57313537597656,-3.2557506561279297,-135.3294677734375,-0.5191579461097717,-8.84932804107666,8.42259693145752,0.09567057341337204,-0.44101402163505554,0.13808563351631165
-48.481624603271484,-3.1185059547424316,-135.2415313720703,0.29800739884376526,-8.457681655883789,7.350039482116699,0.2248789668083191,-0.25794151425361633,0.16710934042930603
-48.66735076904297,-2.9235103130340576,-135.1036376953125,0.4204370677471161,-7.538160800933838,6.561528205871582,0.03904310613870621,-0.13732843101024628,0.25283166766166687
-48.804317474365234,-2.795783758163452,-135.02659606933594,0.9664067029953003,-6.772985935211182,6.51987361907959,-0.12558595836162567,-0.07513020932674408,0.32758232951164246
-48.80175018310547,-2.8329389095306396,-135.1123504638672,1.4388163089752197,-6.182632923126221,6.182283401489258,-0.06752684712409973,-0.015237182378768921,0.18083994090557098
-48.92802429199219,-2.9555861949920654,-135.23760986328125,1.4378756284713745,-6.051191329956055,5.523406028747559,-0.060664501041173935,0.011801905930042267,-0.00038631269126199186
-49.237613677978516,-3.1365416049957275,-135.36082458496094,1.42190420627594,-5.964491844177246,5.1848673820495605,-0.2380599081516266,-0.00148862658534199,-0.12312423437833786
-49.507904052734375,-3.3802285194396973,-135.47528076171875,1.2196197509765625,-6.2561564445495605,5.644259452819824,-0.3741025924682617,-0.028774915263056755,-0.255622923374176
-49.67924499511719,-3.6433446407318115,-135.54074096679688,1.0248228311538696,-6.480489730834961,5.957569599151611,-0.3468800485134125,-0.09567821770906448,-0.31889891624450684
-49.858097076416016,-3.9055981636047363,-135.61546325683594,0.9523032903671265,-6.838718891143799,6.150082588195801,-0.333548367023468,-0.1416100114583969,-0.3584027886390686
-50.0410270690918,-4.133922576904297,-135.70864868164062,0.788197934627533,-7.207649230957031,6.356339931488037,-0.33439216017723083,-0.14763715863227844,-0.39215582609176636
-50.1863899230957,-4.28534460067749,-135.77249145507812,0.5256009101867676,-7.280467510223389,6.641932487487793,-0.32994264364242554,-0.12333519011735916,-0.3741074800491333
-50.240089416503906,-4.364455699920654,-135.80564880371094,0.3047812283039093,-7.365171432495117,7.077103137969971,-0.2665555477142334,-0.10540194809436798,-0.2907699644565582
-50.246620178222656,-4.416615009307861,-135.86581420898438,0.3894197642803192,-7.542108535766602,7.0660719871521,-0.16213960945606232,-0.05906711518764496,-0.22499199211597443
-50.1556282043457,-4.430279731750488,-135.90345764160156,0.23149852454662323,-7.49298620223999,7.283294200897217,-0.12455213069915771,-0.02162047289311886,-0.20158110558986664
-49.85025405883789,-4.3522257804870605,-135.83734130859375,0.015132603235542774,-7.7229461669921875,7.523229598999023,0.11511164903640747,1.5087426618265454e-05,-0.08269064128398895
-49.63542175292969,-4.25936222076416,-135.7412567138672,0.26720404624938965,-7.723187446594238,6.634765148162842,0.3006923496723175,-0.02057441510260105,0.06021394580602646
-49.621673583984375,-4.2213311195373535,-135.7392578125,0.7376946210861206,-7.4660749435424805,6.015550136566162,0.20045176148414612,-0.0007003547507338226,0.08930063247680664
-49.62693405151367,-4.26218843460083,-135.8286590576172,0.9933708310127258,-7.354351043701172,5.9262471199035645,0.12312998622655869,0.022326599806547165,0.024320002645254135
-49.71019744873047,-4.366874694824219,-135.9454345703125,1.1037486791610718,-7.26622200012207,5.571341037750244,0.055311813950538635,0.0516815222799778,-0.08948372304439545
-49.861083984375,-4.495181083679199,-135.98692321777344,0.827742338180542,-7.225166320800781,5.794197082519531,-0.09380059689283371,0.009809623472392559,-0.1562536060810089
-49.879432678222656,-4.594002723693848,-135.98641967773438,0.6979811191558838,-7.290955066680908,6.458548545837402,-0.12083129584789276,-0.044924404472112656,-0.15005621314048767
-49.78071975708008,-4.663487434387207,-135.99403381347656,0.6381453275680542,-7.393373012542725,6.722499370574951,-0.006021188106387854,-0.05468391627073288,-0.13674387335777283
-49.703094482421875,-4.701334476470947,-135.9908905029297,0.5820984244346619,-7.483510494232178,6.653894424438477,0.05524308234453201,-0.056410592049360275,-0.11373312771320343
-49.674415588378906,-4.702861309051514,-135.9994659423828,0.5822655558586121,-7.670167922973633,6.563516139984131,0.07350464165210724,-0.0431157723069191,-0.06924495846033096
-49.706642150878906,-4.697455883026123,-136.03778076171875,0.6957997679710388,-7.668381214141846,6.383305072784424,0.029447488486766815,-0.0016346574993804097,-0.05567074567079544
-49.735382080078125,-4.702901840209961,-136.0570526123047,0.664983332157135,-7.567675590515137,6.415572166442871,-0.0186677984893322,0.01756157912313938,-0.04905127361416817
-49.68214797973633,-4.691286087036133,-136.03477478027344,0.5864287614822388,-7.627668857574463,6.674450874328613,-0.005799904931336641,0.0022815545089542866,-0.035161908715963364
-49.604644775390625,-4.631968021392822,-135.9844512939453,0.5596750378608704,-7.649020671844482,6.592110633850098,0.08217599987983704,0.000768713653087616,0.026922116056084633
-49.6277961730957,-4.5832085609436035,-135.9663848876953,0.7901365756988525,-7.49063777923584,6.305753231048584,0.05337727442383766,0.0036923219449818134,0.07367265969514847
-49.652191162109375,-4.570911407470703,-136.0206298828125,0.9068760871887207,-7.4105987548828125,6.485806465148926,-0.010051206685602665,0.030045773833990097,0.03864821046590805
-49.6359977722168,-4.562816619873047,-136.09103393554688,0.909972071647644,-7.399400234222412,6.490250587463379,0.012213180772960186,0.06132778525352478,-0.009480866603553295
-49.633358001708984,-4.560743808746338,-136.13296508789062,0.8669967651367188,-7.235795021057129,6.266319751739502,-0.004895776975899935,0.07314645498991013,-0.020175427198410034
-49.593910217285156,-4.593747615814209,-136.16256713867188,0.9211509227752686,-7.314736366271973,6.270755290985107,0.014830940403044224,0.04807841032743454,-0.033508989959955215
-49.57161331176758,-4.6424880027771,-136.19833374023438,0.9330403804779053,-7.386778831481934,6.104824542999268,0.04391241446137428,0.028957612812519073,-0.0636272132396698
-49.59700012207031,-4.675595283508301,-136.218505859375,0.8032079935073853,-7.53035306930542,6.1662468910217285,0.0037705525755882263,0.013335607014596462,-0.07462984323501587
-49.6087646484375,-4.6839094161987305,-136.24546813964844,0.7667030096054077,-7.541638374328613,6.3349223136901855,-0.007918848656117916,0.006985477637499571,-0.055377550423145294
-49.587650299072266,-4.671397686004639,-136.2909698486328,0.7637172937393188,-7.540270805358887,6.479242324829102,-0.013495239429175854,0.03468114882707596,-0.060356419533491135
-49.46934509277344,-4.617339611053467,-136.27552795410156,0.5685375332832336,-7.631052494049072,6.792913436889648,0.03517400473356247,0.04873369261622429,-0.029367955401539803
-49.303958892822266,-4.532217979431152,-136.20701599121094,0.5483016967773438,-7.69038724899292,6.739026069641113,0.1591092050075531,0.02864953689277172,0.058447763323783875
-49.22308349609375,-4.451473712921143,-136.17726135253906,0.7696518301963806,-7.650460243225098,6.4767069816589355,0.17344491183757782,0.028062807396054268,0.10255560278892517
-49.17180252075195,-4.390883445739746,-136.19239807128906,0.9490956664085388,-7.441195011138916,6.42094087600708,0.13008436560630798,0.05506855621933937,0.0965869128704071
-49.088069915771484,-4.351771831512451,-136.2218780517578,0.9437153339385986,-7.365867614746094,6.504178047180176,0.12991784512996674,0.06387998163700104,0.06909650564193726
-49.05827331542969,-4.3143391609191895,-136.2661895751953,1.0007437467575073,-7.489184856414795,6.151172637939453,0.14153067767620087,0.07666927576065063,0.04578252509236336
-49.133270263671875,-4.288966178894043,-136.28953552246094,0.9729669690132141,-7.346762180328369,5.82181453704834,0.03378111869096756,0.0903220921754837,0.022494236007332802
-49.17448425292969,-4.300782680511475,-136.28514099121094,0.9408128261566162,-7.096312046051025,6.0064849853515625,-0.02680942974984646,0.04810672253370285,0.030656350776553154
-49.19580078125,-4.361804485321045,-136.35354614257812,1.1493439674377441,-7.0605902671813965,6.07476806640625,-0.01126229576766491,0.025049040094017982,-0.018253551796078682
-49.24876403808594,-4.417416095733643,-136.426513671875,0.9623456001281738,-7.099398136138916,6.184366226196289,-0.06232002004981041,0.045738935470581055,-0.10895619541406631
-49.255550384521484,-4.427709102630615,-136.43682861328125,0.6814243197441101,-7.248322486877441,6.586815357208252,-0.05165525898337364,0.014364534057676792,-0.06512552499771118
-49.23826599121094,-4.428122043609619,-136.5152587890625,0.8607435822486877,-7.4274139404296875,6.600803852081299,-0.024481117725372314,0.03553387150168419,-0.06856881082057953
-49.207923889160156,-4.387722969055176,-136.57003784179688,0.6343678832054138,-7.665506839752197,6.565333843231201,-0.00815615151077509,0.08396933972835541,-0.08562430739402771
-49.162109375,-4.302909851074219,-136.52389526367188,0.48785796761512756,-7.63380241394043,6.384737014770508,0.02872590534389019,0.0720357596874237,0.00870730821043253
-49.09428024291992,-4.256936550140381,-136.505859375,0.73221755027771,-7.476553916931152,6.290555000305176,0.0487862192094326,0.05002748593688011,0.0705799013376236
-48.99015426635742,-4.254580020904541,-136.52841186523438,0.8451097011566162,-7.453522682189941,6.262649059295654,0.10032040625810623,0.05287063121795654,0.019740132614970207
-48.94385528564453,-4.220338344573975,-136.47998046875,0.631039023399353,-7.440541744232178,6.107271194458008,0.126850426197052,0.03182758763432503,0.028613029047846794
-48.95134353637695,-4.165651798248291,-136.42794799804688,0.7217523455619812,-7.301142692565918,6.263242721557617,0.06027166545391083,-0.0011499974643811584,0.09191428124904633
-48.86746597290039,-4.1293439865112305,-136.45774841308594,0.8821423053741455,-7.256196975708008,6.741439342498779,0.05997028574347496,0.029343554750084877,0.06851571798324585
-48.75563430786133,-4.0876030921936035,-136.47789001464844,0.7627266645431519,-7.179799556732178,6.649412155151367,0.14253057539463043,0.05245526134967804,0.03758092597126961
-48.6840705871582,-4.0192694664001465,-136.45387268066406,0.6855764389038086,-7.089748382568359,6.526464462280273,0.10964594036340714,0.05361457169055939,0.06307904422283173
-48.5247688293457,-3.9570510387420654,-136.41180419921875,0.7126805782318115,-7.161375999450684,6.666792869567871,0.16029499471187592,0.04816819727420807,0.09221754223108292
-48.39019012451172,-3.921698808670044,-136.38858032226562,0.841079831123352,-7.1361236572265625,6.339961051940918,0.23191335797309875,0.02448876202106476,0.10114037245512009
-48.35747528076172,-3.9010770320892334,-136.39614868164062,0.9355773329734802,-7.056440353393555,5.976186752319336,0.1655457764863968,0.03663767874240875,0.06442425400018692
-48.31460189819336,-3.888700485229492,-136.36366271972656,0.8365638256072998,-7.117032051086426,6.025022983551025,0.12199974805116653,0.02393816038966179,0.05550701916217804
-48.30695343017578,-3.9237024784088135,-136.335205078125,0.9988115429878235,-6.9353461265563965,5.778727054595947,0.12183061242103577,-0.012913721613585949,0.06325487792491913
-48.371707916259766,-4.035610198974609,-136.3688507080078,1.156396508216858,-6.819546222686768,5.788267135620117,0.016547925770282745,-0.03837011754512787,-0.01979805715382099
-48.38848114013672,-4.150235652923584,-136.41639709472656,0.9478831887245178,-6.992332458496094,6.294348239898682,-0.011992457322776318,-0.05798303335905075,-0.10109993070363998
-48.40224075317383,-4.210350513458252,-136.4559326171875,0.7433639168739319,-7.210845470428467,6.4942240715026855,-0.006925688125193119,-0.0487297885119915,-0.12239965051412582
-48.39268493652344,-4.2173566818237305,-136.47483825683594,0.5297511219978333,-7.223775863647461,6.767978668212891,-0.03438033536076546,-0.024915486574172974,-0.10195861011743546
-48.29660415649414,-4.195769786834717,-136.47300720214844,0.5045018196105957,-7.307651519775391,6.934492111206055,0.0414108969271183,-0.004766137804836035,-0.05063527077436447
-48.283790588378906,-4.186787128448486,-136.5003204345703,0.6528659462928772,-7.300965309143066,6.492427825927734,0.09166468679904938,0.004882179666310549,-0.0203106552362442
-48.35601043701172,-4.183668613433838,-136.57461547851562,0.7227340936660767,-7.208829402923584,6.374091625213623,-0.031794238835573196,0.03864523768424988,-0.049531467258930206
-48.22604751586914,-4.1354756355285645,-136.59225463867188,0.409404993057251,-7.316593647003174,7.079523086547852,-0.012508035637438297,0.06901378929615021,-0.051936883479356766
-47.99486541748047,-4.048187732696533,-136.55239868164062,0.4315074682235718,-7.517402648925781,6.877031326293945,0.20479175448417664,0.050846315920352936,0.045396219938993454
-47.91664123535156,-3.970930337905884,-136.54525756835938,0.6968870162963867,-7.430719375610352,6.2210211753845215,0.19070900976657867,0.0703243613243103,0.0626506432890892
-47.82350540161133,-3.8794586658477783,-136.4987030029297,0.5528247952461243,-7.445468902587891,6.481255531311035,0.15101975202560425,0.06378573924303055,0.09180029481649399
-47.678218841552734,-3.7854151725769043,-136.44976806640625,0.6730592250823975,-7.283915042877197,6.536507606506348,0.20747318863868713,0.05556141957640648,0.14412760734558105
-47.56794738769531,-3.7215139865875244,-136.4412841796875,0.7678031325340271,-7.276699542999268,6.51852560043335,0.2025049775838852,0.05768575891852379,0.12684690952301025
-47.42011260986328,-3.6301631927490234,-136.4217529296875,0.6750527024269104,-7.178574085235596,6.679301738739014,0.19804337620735168,0.06446746736764908,0.11011345684528351
-47.218536376953125,-3.4816670417785645,-136.348388671875,0.5466134548187256,-7.105008602142334,6.807251453399658,0.2642969489097595,0.07820077985525131,0.15774653851985931
-47.07249450683594,-3.351952314376831,-136.2898406982422,0.684238612651825,-7.057769775390625,6.595703125,0.2931568920612335,0.07020071148872375,0.2299487143754959
-47.037052154541016,-3.320321798324585,-136.32810974121094,0.9580731391906738,-6.971303462982178,6.2551751136779785,0.2318098247051239,0.08919596672058105,0.16351370513439178
-47.05509948730469,-3.3361363410949707,-136.37245178222656,0.9111331105232239,-6.828764915466309,6.215612888336182,0.11878369748592377,0.069834865629673,0.06216001510620117
-47.03915786743164,-3.3050105571746826,-136.42584228515625,0.8249529600143433,-6.917259216308594,6.467238903045654,0.07655007392168045,0.059637248516082764,0.02920832857489586
-47.071041107177734,-3.265554904937744,-136.5274658203125,0.8172063827514648,-7.045369625091553,6.310218811035156,0.06426592171192169,0.11779538542032242,0.01006331481039524
-47.15267562866211,-3.262371301651001,-136.64523315429688,0.8008494973182678,-7.053866386413574,6.362208843231201,-0.05386100336909294,0.1208977922797203,-0.050286583602428436
-47.09731674194336,-3.186955690383911,-136.7313690185547,0.5063695311546326,-7.227452278137207,6.873657703399658,-0.03645346686244011,0.1536606252193451,-0.07414931803941727
-46.982906341552734,-3.0505032539367676,-136.72140502929688,0.3113436698913574,-7.2371931076049805,6.888513088226318,0.07042793184518814,0.1693210005760193,0.01886655017733574
-46.930301666259766,-2.962275743484497,-136.6974334716797,0.47041043639183044,-7.190725326538086,6.8054704666137695,0.09371621161699295,0.13634172081947327,0.09349232167005539
-46.91462707519531,-2.950169086456299,-136.75283813476562,0.6839833855628967,-7.181396484375,6.739889144897461,0.0706348791718483,0.10991992801427841,0.06697887182235718
-46.8703498840332,-2.954355478286743,-136.84228515625,0.6345685720443726,-7.078278064727783,6.817715644836426,0.045128725469112396,0.11386480182409286,-0.023316964507102966
-46.734737396240234,-2.8856699466705322,-136.83058166503906,0.28865158557891846,-7.213097095489502,6.985507965087891,0.09416399151086807,0.10751987993717194,-0.02082735300064087
-46.53379440307617,-2.7594552040100098,-136.7258758544922,0.19363704323768616,-7.244842529296875,6.9886393547058105,0.188284233212471,0.07601027190685272,0.09935743361711502
-46.32862854003906,-2.6641523838043213,-136.63380432128906,0.31467998027801514,-7.297659873962402,6.840169429779053,0.26542314887046814,0.05215651914477348,0.16558495163917542
-46.14558410644531,-2.58474063873291,-136.5602569580078,0.3754747211933136,-7.3057403564453125,6.796824932098389,0.288295716047287,0.02439376711845398,0.16524703800678253
-45.96342468261719,-2.468414068222046,-136.4902801513672,0.32734861969947815,-7.207825183868408,6.810484886169434,0.30216237902641296,0.03345554322004318,0.18938618898391724
-45.78594207763672,-2.373300075531006,-136.40432739257812,0.3784328103065491,-7.214803218841553,6.756949424743652,0.3091267943382263,0.046127136796712875,0.20719534158706665
-45.613765716552734,-2.3188369274139404,-136.28074645996094,0.34935376048088074,-7.181156635284424,6.725767135620117,0.3088465929031372,-0.0025141993537545204,0.20617760717868805
-45.42101287841797,-2.2511537075042725,-136.1337432861328,0.3102683424949646,-7.050620079040527,6.914235591888428,0.3096185326576233,-0.03695191815495491,0.2196110188961029
-45.249107360839844,-2.1783945560455322,-135.99481201171875,0.3241175711154938,-7.195363998413086,7.007669448852539,0.3457998037338257,-0.06357251852750778,0.25060704350471497
-45.20695877075195,-2.1462690830230713,-135.90151977539062,0.5566109418869019,-7.111867427825928,6.737532615661621,0.2731163203716278,-0.054294273257255554,0.22986970841884613
-45.20610046386719,-2.183910608291626,-135.77516174316406,0.5021599531173706,-7.005688667297363,6.766660690307617,0.152261421084404,-0.08330868929624557,0.1754528284072876
-45.2250862121582,-2.2843778133392334,-135.62615966796875,0.49264389276504517,-6.884926795959473,6.642050266265869,0.13081417977809906,-0.17165544629096985,0.1630740910768509
-45.274662017822266,-2.440558433532715,-135.54139709472656,0.6123709678649902,-6.718352317810059,6.674821853637695,-0.0013422223273664713,-0.21738563477993011,0.07114318758249283
-45.117164611816406,-2.5705041885375977,-135.42623901367188,0.3012397289276123,-6.968557834625244,7.40632438659668,0.052159104496240616,-0.24895858764648438,0.0022446743678301573
-44.93476867675781,-2.6360228061676025,-135.26663208007812,0.24390064179897308,-7.087717056274414,7.104686737060547,0.23039644956588745,-0.2682955265045166,0.05012437328696251
-44.885047912597656,-2.6870105266571045,-135.116455078125,0.32498160004615784,-6.916447162628174,6.809535503387451,0.15238137543201447,-0.25609517097473145,0.06913378089666367
-44.76015090942383,-2.7437586784362793,-134.96286010742188,0.26657193899154663,-6.9168524742126465,7.2713704109191895,0.1767030656337738,-0.25802865624427795,0.10356590896844864
-44.63164520263672,-2.84013032913208,-134.870361328125,0.5514757037162781,-6.812058448791504,7.022016525268555,0.20603567361831665,-0.25500038266181946,0.08611293137073517
-44.469566345214844,-2.9368300437927246,-134.80564880371094,0.4320422112941742,-6.934274673461914,7.205491542816162,0.20267601311206818,-0.23370952904224396,0.014257809147238731
-44.27217102050781,-2.941678524017334,-134.69662475585938,0.18913061916828156,-6.967528820037842,7.288558006286621,0.29201316833496094,-0.21819482743740082,0.034219227731227875
-44.17927169799805,-2.8629815578460693,-134.58982849121094,0.27817419171333313,-6.912416934967041,6.935068130493164,0.2645569443702698,-0.15235774219036102,0.11061825603246689
-44.11091232299805,-2.779019594192505,-134.49508666992188,0.38022270798683167,-6.871103286743164,6.90000057220459,0.19839616119861603,-0.09566324949264526,0.15327171981334686
-44.04866027832031,-2.719719171524048,-134.42922973632812,0.5803735256195068,-6.685141563415527,6.825655937194824,0.19316475093364716,-0.06490352004766464,0.1781618595123291
-43.9998664855957,-2.7044949531555176,-134.4251251220703,0.8084113001823425,-6.472034931182861,6.824812412261963,0.11904969066381454,-0.034327432513237,0.12986980378627777
-43.87940979003906,-2.693220615386963,-134.41265869140625,0.5481160879135132,-6.64284610748291,7.266505241394043,0.15933626890182495,-0.01437291782349348,0.07221291214227676
-43.819740295410156,-2.662552833557129,-134.37722778320312,0.5234299302101135,-6.577013969421387,6.990496635437012,0.1706702709197998,-0.018446898087859154,0.08730535209178925
-43.840843200683594,-2.647613048553467,-134.42022705078125,0.676571249961853,-6.667008399963379,6.96190881729126,0.09537843614816666,0.002010353608056903,0.06681513786315918
-43.89695739746094,-2.6533429622650146,-134.51568603515625,0.757169783115387,-6.654491901397705,6.7763261795043945,0.034573495388031006,0.05248059704899788,-0.015181677415966988
-43.9438362121582,-2.6559898853302,-134.56907653808594,0.4894440174102783,-6.701056003570557,7.018538475036621,-0.045190759003162384,0.05996694043278694,-0.04442446306347847
-43.89750289916992,-2.648496150970459,-134.60829162597656,0.490037739276886,-6.940773010253906,7.219184398651123,-0.006688759662210941,0.05608406290411949,-0.040533021092414856
-43.867862701416016,-2.6335041522979736,-134.6145782470703,0.38360172510147095,-6.9822282791137695,6.921958923339844,0.03886707127094269,0.06297901272773743,-0.043691325932741165
-43.87615203857422,-2.6196746826171875,-134.56256103515625,0.3646620810031891,-6.948134422302246,6.907974720001221,0.005445629823952913,0.021810084581375122,0.01373328361660242
-43.85070037841797,-2.6248912811279297,-134.55921936035156,0.528886616230011,-6.85554838180542,7.094730377197266,0.022949090227484703,-0.002053007483482361,0.02503674477338791
-43.84596633911133,-2.6275949478149414,-134.57664489746094,0.5844046473503113,-6.84417200088501,6.957042217254639,0.027055293321609497,0.01552924606949091,-0.01306682825088501
-43.86319351196289,-2.615598678588867,-134.5460205078125,0.45163729786872864,-6.800773620605469,7.045228004455566,0.002658926183357835,0.002347864443436265,0.013329274952411652
-43.866355895996094,-2.615568161010742,-134.54940795898438,0.6604228615760803,-6.738856315612793,7.091368675231934,-0.003323331708088517,-0.006442517042160034,0.02698581852018833
-43.87211227416992,-2.6174814701080322,-134.57513427734375,0.6170236468315125,-6.691287517547607,7.09511661529541,0.0001003965808195062,0.015229174867272377,-0.01743026077747345
-43.89752197265625,-2.59967041015625,-134.5740509033203,0.4651746153831482,-6.655404090881348,7.163323402404785,-0.015673786401748657,0.009388663806021214,0.010193698108196259
-43.90890884399414,-2.588689088821411,-134.62255859375,0.6179237961769104,-6.626473426818848,7.077878952026367,-0.028652703389525414,0.02931785397231579,-0.0042807310819625854
-43.911163330078125,-2.5831637382507324,-134.66688537597656,0.4642767906188965,-6.66879940032959,6.943997859954834,-0.010938571766018867,0.05490650609135628,-0.03266073763370514
-43.949493408203125,-2.5848183631896973,-134.66575622558594,0.42925259470939636,-6.769220352172852,6.705624580383301,-0.025351351127028465,0.03733989596366882,-0.020144879817962646
-43.992027282714844,-2.59218692779541,-134.6595001220703,0.44339248538017273,-6.8655686378479,6.790101528167725,-0.05254969000816345,0.01653190888464451,-0.012617558240890503
-44.02442169189453,-2.598161220550537,-134.65032958984375,0.4454646706581116,-6.8495965003967285,6.876204013824463,-0.046585872769355774,0.00636707991361618,-0.008097291924059391
-44.0656852722168,-2.6148483753204346,-134.63853454589844,0.4582270383834839,-6.768752098083496,7.001696586608887,-0.06178134307265282,-0.006073714233934879,0.00023115430667530745
-44.07954788208008,-2.6439852714538574,-134.6307373046875,0.4910085201263428,-6.76515007019043,7.1478271484375,-0.055935245007276535,-0.020384788513183594,-0.013311952352523804
-44.07845687866211,-2.6574370861053467,-134.61175537109375,0.39638999104499817,-6.681696891784668,7.203061103820801,-0.029408559203147888,-0.029335172846913338,-0.011567026376724243
-44.08730697631836,-2.6531012058258057,-134.6165008544922,0.45427069067955017,-6.735640048980713,7.260875225067139,-0.02323724329471588,-0.028545785695314407,0.006177836563438177
-44.099178314208984,-2.647702217102051,-134.651611328125,0.5173040628433228,-6.687641143798828,7.149647235870361,-0.022129343822598457,0.01275278627872467,-0.01793392188847065
-44.0943717956543,-2.6486899852752686,-134.65884399414062,0.40806418657302856,-6.630640983581543,7.210866928100586,-0.02485811896622181,0.010443665087223053,-0.012871623039245605
-44.0552978515625,-2.6463284492492676,-134.6746368408203,0.4809132218360901,-6.704133987426758,7.204235553741455,0.010255911387503147,0.012201258912682533,-0.014875085093080997
-44.04056930541992,-2.630857229232788,-134.67091369628906,0.3910190761089325,-6.8712077140808105,7.098318576812744,0.031504593789577484,0.022722594439983368,-0.014455619268119335
-44.05561065673828,-2.6143953800201416,-134.6405792236328,0.4145694077014923,-6.791701316833496,6.9631667137146,0.0044507915154099464,0.006718748714774847,0.023459460586309433
-44.04363250732422,-2.613553524017334,-134.64373779296875,0.5243783593177795,-6.825816631317139,7.079295635223389,0.0029554590582847595,0.002201833063736558,0.020498597994446754
-44.02819061279297,-2.6127383708953857,-134.63693237304688,0.46042633056640625,-6.815197944641113,7.0017218589782715,0.02185981720685959,0.011737831868231297,0.0004721804871223867
-44.040130615234375,-2.6077308654785156,-134.59268188476562,0.3917783498764038,-6.787600994110107,6.98602294921875,0.008301996625959873,-0.01439452264457941,0.029961206018924713
-44.040802001953125,-2.6124179363250732,-134.5894775390625,0.5334751605987549,-6.683605194091797,7.048647880554199,-0.004028901923447847,-0.018885735422372818,0.032468702644109726
-44.036502838134766,-2.6251018047332764,-134.60231018066406,0.47393691539764404,-6.772592544555664,7.08619499206543,0.011138060130178928,-0.0029373914003372192,-0.0037401914596557617
-44.047359466552734,-2.627401828765869,-134.56381225585938,0.3695957362651825,-6.740136623382568,6.969438552856445,-0.008980557322502136,-0.013947115279734135,0.005148164927959442
-44.01470947265625,-2.6230580806732178,-134.51638793945312,0.36044827103614807,-6.72222900390625,7.228397369384766,0.003988482058048248,-0.03622286021709442,0.036982256919145584
-43.9705810546875,-2.6174490451812744,-134.48883056640625,0.458694189786911,-6.693355560302734,7.148454189300537,0.04744325578212738,-0.027436023578047752,0.0332830473780632
-43.97876739501953,-2.624504566192627,-134.46359252929688,0.4442013204097748,-6.613596439361572,7.061460018157959,0.03540609031915665,-0.0327918715775013,0.045488592237234116
-44.01203155517578,-2.6485862731933594,-134.50852966308594,0.6447538733482361,-6.698282241821289,7.087584018707275,-0.0006724149570800364,-0.03174617886543274,0.01127962302416563
-44.05436706542969,-2.6506199836730957,-134.55882263183594,0.46047163009643555,-6.691523551940918,7.048555374145508,-0.02603084221482277,0.025496449321508408,-0.05094559118151665
-44.09672164916992,-2.6444928646087646,-134.537841796875,0.37305399775505066,-6.575845718383789,6.991294860839844,-0.052993182092905045,0.0034589311107993126,-0.002870149677619338
-44.115386962890625,-2.6637794971466064,-134.58328247070312,0.6222829818725586,-6.560701370239258,7.048758029937744,-0.045773763209581375,0.006656162440776825,-0.013947859406471252
-44.15140151977539,-2.6969497203826904,-134.64926147460938,0.5671976208686829,-6.579989433288574,6.953321933746338,-0.04400760680437088,0.03011208586394787,-0.06879642605781555
-44.19285202026367,-2.7206151485443115,-134.6570281982422,0.40615448355674744,-6.679990768432617,6.9359564781188965,-0.0705607458949089,0.01740996353328228,-0.06757640838623047
-44.18919372558594,-2.7367448806762695,-134.62921142578125,0.3521489202976227,-6.783203601837158,7.059156894683838,-0.04701577499508858,-0.005075335502624512,-0.039258237928152084
-44.16798400878906,-2.7661330699920654,-134.5961151123047,0.39490023255348206,-6.7806525230407715,7.129995346069336,-0.015468896366655827,-0.029173120856285095,-0.012682750821113586
-44.1356201171875,-2.8021116256713867,-134.5816650390625,0.4879683256149292,-6.867137432098389,7.202630519866943,0.007577425800263882,-0.050553303211927414,-0.020538266748189926
-44.09830093383789,-2.7953429222106934,-134.5419158935547,0.2749156951904297,-6.9065752029418945,7.240967273712158,0.03406014293432236,-0.03889650106430054,-0.01740790717303753
-44.06391525268555,-2.7535440921783447,-134.46896362304688,0.26277756690979004,-6.882805347442627,7.275519371032715,0.041410140693187714,-0.049150366336107254,0.05524474382400513
-44.02573013305664,-2.7205545902252197,-134.47767639160156,0.5482180714607239,-6.8071818351745605,7.248862266540527,0.058122165501117706,-0.02362765558063984,0.06972869485616684
-44.02266311645508,-2.695931911468506,-134.5078125,0.5675601959228516,-6.784205913543701,7.023271083831787,0.048491545021533966,0.02867710031569004,0.014963934198021889
-44.038063049316406,-2.663299560546875,-134.4630584716797,0.42153123021125793,-6.687145709991455,6.978964805603027,0.011744163930416107,0.017394311726093292,0.04724953696131706
-44.01524353027344,-2.650740623474121,-134.45333862304688,0.6509833335876465,-6.584200382232666,7.041557788848877,0.012877772562205791,0.0001901760697364807,0.06371644884347916
-43.99917984008789,-2.6649463176727295,-134.48922729492188,0.6952663064002991,-6.603005409240723,6.947506427764893,0.038774870336055756,0.02348516695201397,0.011280366219580173
-44.05198669433594,-2.698392868041992,-134.48733520507812,0.6486390829086304,-6.642943382263184,6.681656837463379,-0.001530722132883966,0.004710443317890167,-0.009365753270685673
-44.11247634887695,-2.7466795444488525,-134.50660705566406,0.6503033638000488,-6.5648274421691895,6.82059907913208,-0.052411485463380814,-0.02311691828072071,-0.017093118280172348
-44.138797760009766,-2.790853977203369,-134.55406188964844,0.6177327632904053,-6.725461959838867,6.969615936279297,-0.057037919759750366,-0.006866827141493559,-0.07455796003341675
-44.16006088256836,-2.7927584648132324,-134.5282745361328,0.3195197880268097,-6.786077499389648,7.043812274932861,-0.045949965715408325,-0.011613965965807438,-0.05510562285780907
-44.15996551513672,-2.783104658126831,-134.5032501220703,0.46593284606933594,-6.757109642028809,7.145787715911865,-0.046746060252189636,-0.026502834632992744,0.010961480438709259
-44.12956619262695,-2.792567253112793,-134.52940368652344,0.5741854906082153,-6.781463146209717,7.153302192687988,0.0023664908949285746,-0.0009678304777480662,-0.022564083337783813
-44.14741516113281,-2.7909350395202637,-134.53182983398438,0.46147769689559937,-6.782445430755615,7.002286434173584,0.0009892508387565613,-0.0032331792172044516,-0.010204687714576721
-44.172977447509766,-2.784316301345825,-134.55238342285156,0.5547352433204651,-6.82696533203125,6.959558963775635,-0.030710548162460327,0.009687057696282864,-0.012945757247507572
-44.1558952331543,-2.7695770263671875,-134.56544494628906,0.4122594892978668,-6.818065166473389,7.1497015953063965,-0.015378743410110474,0.022759849205613136,-0.01439899206161499
-44.11880874633789,-2.743781089782715,-134.55850219726562,0.43483394384384155,-6.8605451583862305,7.071070194244385,0.01264568418264389,0.02365950495004654,0.0035015868488699198
-44.092071533203125,-2.7147982120513916,-134.53387451171875,0.3889942169189453,-6.904627323150635,6.974388122558594,0.036550696939229965,0.025393445044755936,0.022572284564375877
-44.09592819213867,-2.6952576637268066,-134.50656127929688,0.5092188715934753,-6.8575286865234375,6.820222854614258,0.02412889152765274,0.007084943819791079,0.047381412237882614
-44.10170364379883,-2.6917736530303955,-134.49575805664062,0.5619849562644958,-6.799640655517578,6.865257263183594,0.007325970102101564,0.012057460844516754,0.03354642912745476
-44.09942626953125,-2.7037832736968994,-134.46754455566406,0.56263267993927,-6.727832794189453,6.88320779800415,0.007030554115772247,-0.011343134567141533,0.0320604108273983
-44.1036491394043,-2.7222793102264404,-134.4488525390625,0.6110857725143433,-6.686162948608398,6.878234386444092,0.005999021232128143,-0.02344772405922413,0.02267826348543167
-44.123416900634766,-2.7489917278289795,-134.42588806152344,0.5957174301147461,-6.619348526000977,6.796841144561768,-0.005309282802045345,-0.031324852257966995,0.010843389667570591
-44.138877868652344,-2.781784772872925,-134.42404174804688,0.604802131652832,-6.607327461242676,6.98831844329834,-0.021836157888174057,-0.05097426846623421,0.00863838940858841
-44.14805603027344,-2.805237293243408,-134.456787109375,0.6086063981056213,-6.782188415527344,7.051734447479248,-0.010873750783503056,-0.02114884741604328,-0.034802407026290894
-44.17267990112305,-2.8114378452301025,-134.43360900878906,0.3806142508983612,-6.788249492645264,7.087774753570557,-0.030303750187158585,-0.016941504552960396,-0.025466084480285645
-44.166263580322266,-2.8161070346832275,-134.42098999023438,0.48043546080589294,-6.707307815551758,7.243010520935059,-0.022151321172714233,-0.03759526088833809,0.012639353983104229
-44.157508850097656,-2.8145458698272705,-134.47653198242188,0.5405626893043518,-6.766486167907715,7.2598347663879395,0.003460981184616685,0.0019976869225502014,-0.02745501883327961
-44.16325759887695,-2.7853622436523438,-134.49415588378906,0.3823406398296356,-6.7845940589904785,7.14161491394043,-0.015786290168762207,0.03235433250665665,-0.026954716071486473
-44.12421417236328,-2.752589225769043,-134.47317504882812,0.3772868514060974,-6.854043960571289,7.130036354064941,0.007000751793384552,0.030056947842240334,0.013499520719051361
-44.07062530517578,-2.7414979934692383,-134.44204711914062,0.5034121870994568,-6.86672306060791,6.935976982116699,0.04641208425164223,0.020327232778072357,0.026117824018001556
-44.05229949951172,-2.7537097930908203,-134.40005493164062,0.4818117320537567,-6.786142826080322,6.878148078918457,0.056061338633298874,-0.011679530143737793,0.040317144244909286
-44.0724983215332,-2.7857422828674316,-134.3970947265625,0.6576688885688782,-6.737719535827637,6.782120704650879,0.025210343301296234,-0.03175884485244751,0.024042094126343727
-44.10108947753906,-2.8133225440979004,-134.41575622558594,0.5208323001861572,-6.723333835601807,6.941616535186768,-0.0047434126026928425,-0.02118609845638275,-0.018388407304883003
-44.11497497558594,-2.820495367050171,-134.40670776367188,0.39035308361053467,-6.7052202224731445,7.092804431915283,-0.022123754024505615,-0.019976498559117317,-0.013925508596003056
-44.11357116699219,-2.830857992172241,-134.3973388671875,0.4258819818496704,-6.754754543304443,7.0709733963012695,-0.006726385094225407,-0.018707292154431343,-0.0013422220945358276
-44.128753662109375,-2.8630387783050537,-134.39193725585938,0.4969203770160675,-6.751059055328369,6.920230388641357,-0.012784451246261597,-0.02315416932106018,-0.01294016931205988
-44.1300048828125,-2.893639326095581,-134.37191772460938,0.4618504047393799,-6.792243003845215,7.02199649810791,-0.020597878843545914,-0.039948899298906326,-0.020267818123102188
-44.09830856323242,-2.9014031887054443,-134.34530639648438,0.41940590739250183,-6.794497966766357,7.177964687347412,0.006757490336894989,-0.04340038076043129,-0.004297122824937105
-44.070030212402344,-2.913602352142334,-134.3433380126953,0.5459557771682739,-6.743551731109619,7.143996715545654,0.029674364253878593,-0.03612228482961655,0.008371287025511265
-44.077022552490234,-2.937936782836914,-134.370849609375,0.597439169883728,-6.820525169372559,7.040687084197998,0.02592858485877514,-0.022535400465130806,-0.024508316069841385
-44.10525131225586,-2.9453117847442627,-134.38258361816406,0.44986259937286377,-6.86436128616333,7.05892276763916,-0.01155063509941101,-0.008253009058535099,-0.03062523901462555
-44.088924407958984,-2.9480066299438477,-134.37313842773438,0.4197719097137451,-6.934654712677002,7.108761310577393,-0.013493001461029053,-0.006844476331025362,-0.0170536357909441
-44.026554107666016,-2.9464094638824463,-134.33303833007812,0.37097278237342834,-7.024467945098877,7.124612331390381,0.030635114759206772,-0.013796242885291576,-0.004583597183227539
-43.98054504394531,-2.9367635250091553,-134.25599670410156,0.3653346002101898,-7.034252643585205,6.970041275024414,0.06773974001407623,-0.037271156907081604,0.040127526968717575
-43.95000457763672,-2.9271204471588135,-134.2034912109375,0.5219136476516724,-6.933286666870117,6.984842777252197,0.049551770091056824,-0.05535893514752388,0.063947394490242
-43.892242431640625,-2.9025347232818604,-134.18450927734375,0.509621262550354,-6.954842567443848,7.2180399894714355,0.07569696009159088,-0.031004847958683968,0.05406458303332329
-43.856658935546875,-2.866769313812256,-134.15518188476562,0.5200896859169006,-6.812159061431885,7.084901809692383,0.07586311548948288,-0.014027953147888184,0.0639474019408226
-43.78449249267578,-2.8225932121276855,-134.113525390625,0.4653235375881195,-6.872200965881348,7.304927825927734,0.06402825564146042,-0.005059690680354834,0.07063467800617218
-43.676387786865234,-2.767911195755005,-134.05499267578125,0.42716652154922485,-6.900720119476318,7.260815143585205,0.14090000092983246,-0.0013142824172973633,0.09946358948945999
-43.624481201171875,-2.725709915161133,-133.99325561523438,0.5470795035362244,-6.663938045501709,6.981041431427002,0.11631195992231369,-0.002911314368247986,0.11123810708522797
-43.57675552368164,-2.708878517150879,-133.96713256835938,0.6538419127464294,-6.4767279624938965,7.020772457122803,0.11983159929513931,-0.01714937388896942,0.11730661243200302
-43.58498001098633,-2.7220208644866943,-134.00543212890625,0.809914231300354,-6.438696384429932,6.841100692749023,0.08147712051868439,0.00645611435174942,0.04755203053355217
-43.62861251831055,-2.7475180625915527,-134.03736877441406,0.6790064573287964,-6.390758037567139,6.8282575607299805,0.020234473049640656,0.008346700109541416,0.006062723696231842
-43.67972946166992,-2.788555383682251,-134.08192443847656,0.7143173813819885,-6.589433670043945,6.836316108703613,-0.01815781183540821,0.006813369691371918,-0.02901330590248108
-43.74345397949219,-2.8372466564178467,-134.10470581054688,0.6390162706375122,-6.696012020111084,6.681133270263672,-0.055133186280727386,0.005910733249038458,-0.07002019882202148
-43.7700309753418,-2.877260446548462,-134.0731201171875,0.451752632856369,-6.739947319030762,7.0158915519714355,-0.07667654007673264,-0.030542539432644844,-0.04581548273563385
-43.74983596801758,-2.922123908996582,-134.06356811523438,0.5295072197914124,-6.800439357757568,7.186985969543457,-0.022625183686614037,-0.04943683743476868,-0.03211796656250954
-43.741886138916016,-2.9559133052825928,-134.0641632080078,0.43776267766952515,-6.818883895874023,7.219964981079102,-0.01843385584652424,-0.04663132131099701,-0.055202849209308624
-43.70298767089844,-2.945483684539795,-134.02967834472656,0.285292387008667,-6.824222087860107,7.4186859130859375,0.009162165224552155,-0.04215240851044655,-0.017859041690826416
-43.66028594970703,-2.921243906021118,-134.00180053710938,0.34313178062438965,-6.827516078948975,7.356341361999512,0.04284996911883354,-0.03038458712399006,0.019198838621377945
-43.64102554321289,-2.897979974746704,-133.99826049804688,0.42607617378234863,-6.725613117218018,7.257111549377441,0.04273001849651337,-0.012278559617698193,0.027798306196928024
-43.6348991394043,-2.8808445930480957,-134.02915954589844,0.49369800090789795,-6.62239933013916,7.2217912673950195,0.03343280032277107,0.009465029463171959,0.02434830740094185
-43.65289306640625,-2.876779556274414,-134.07212829589844,0.5742751359939575,-6.712097644805908,6.954851150512695,0.016620570793747902,0.03951285034418106,-0.014417246915400028
-43.70431137084961,-2.880655288696289,-134.06393432617188,0.4362753629684448,-6.763314247131348,6.877923011779785,-0.018992647528648376,0.0292385034263134,-0.010072440840303898
-43.74528503417969,-2.9034905433654785,-134.06597900390625,0.5997704267501831,-6.68113899230957,6.957934856414795,-0.053993985056877136,-0.0020068141166120768,0.0017533081118017435
-43.755897521972656,-2.936704635620117,-134.09169006347656,0.614538311958313,-6.666501522064209,7.057307720184326,-0.037254396826028824,0.007361359894275665,-0.0414576381444931
-43.76836395263672,-2.962916135787964,-134.07199096679688,0.46890130639076233,-6.624442100524902,7.095792770385742,-0.03810637444257736,-0.017798325046896935,-0.02876855805516243
-43.74766159057617,-2.9816458225250244,-134.0703582763672,0.49587777256965637,-6.689948081970215,7.294357776641846,-0.019758569076657295,-0.02913922630250454,-0.019054118543863297
-43.71159744262695,-2.9837565422058105,-134.07095336914062,0.41538941860198975,-6.736064910888672,7.295446872711182,0.017258338630199432,-0.011781231500208378,-0.029780715703964233
-43.70043182373047,-2.9672298431396484,-134.04022216796875,0.3503718674182892,-6.6565423011779785,7.195213317871094,0.02519805170595646,-0.016868487000465393,0.007875822484493256
-43.6939582824707,-2.9667725563049316,-134.0601348876953,0.5455001592636108,-6.550954341888428,7.140734672546387,0.013594514690339565,-0.008681414648890495,0.021404216066002846
-43.693660736083984,-2.9858245849609375,-134.10850524902344,0.5976866483688354,-6.716597080230713,6.992631435394287,0.02031605690717697,0.018795765936374664,-0.037679824978113174
-43.720008850097656,-2.9744739532470703,-134.0883331298828,0.30758291482925415,-6.85324239730835,7.076927185058594,-0.011340529657900333,0.00914689153432846,-0.024393947795033455
-43.699153900146484,-2.935208559036255,-134.06663513183594,0.37571966648101807,-6.856346130371094,7.318276405334473,-0.013243037275969982,0.002090074587613344,0.0261722169816494
-43.6428108215332,-2.894160747528076,-134.05880737304688,0.4495556950569153,-6.85791015625,7.256307601928711,0.039516206830739975,0.032794661819934845,0.02449471689760685
-43.626556396484375,-2.8629329204559326,-134.00978088378906,0.4841102659702301,-6.73308801651001,7.063225746154785,0.045511312782764435,0.014072099700570107,0.061338964849710464
-43.61916732788086,-2.8661534786224365,-134.00552368164062,0.7012805938720703,-6.467167377471924,6.997300148010254,0.0259347315877676,0.0015120955649763346,0.06293133646249771
-43.60004425048828,-2.9017512798309326,-134.05014038085938,0.7607161998748779,-6.378656387329102,6.9988861083984375,0.03204662725329399,0.005748681724071503,0.00023562461137771606
-43.61262130737305,-2.934487819671631,-134.0813446044922,0.636526346206665,-6.487164497375488,6.914068222045898,0.02249237336218357,0.006894208490848541,-0.03604516759514809
-43.653228759765625,-2.9692060947418213,-134.09854125976562,0.6020997166633606,-6.652990818023682,6.850485324859619,-0.016012417152523994,-0.002533197170123458,-0.04206150025129318
-43.681602478027344,-3.0138959884643555,-134.11773681640625,0.5619571805000305,-6.781260013580322,6.964259624481201,-0.03476552665233612,-0.011220947839319706,-0.05702265352010727
-43.69849395751953,-3.0448150634765625,-134.11856079101562,0.4658617675304413,-6.827517032623291,7.009018421173096,-0.033324215561151505,-0.022126734256744385,-0.06263963878154755
-43.697505950927734,-3.04121732711792,-134.0941162109375,0.41673174500465393,-6.855870246887207,7.161673069000244,-0.03175996243953705,-0.024649878963828087,-0.032240524888038635
-43.663082122802734,-3.01576828956604,-134.06488037109375,0.40998998284339905,-6.90305233001709,7.332167148590088,0.0016598033253103495,-0.01988932490348816,0.005160458851605654
-43.63704299926758,-2.9815499782562256,-134.051025390625,0.5068098902702332,-6.749440670013428,7.204195976257324,0.02860855869948864,-0.005418808199465275,0.030543101951479912
-43.61934280395508,-2.955845832824707,-134.06509399414062,0.5627871155738831,-6.675232887268066,7.210812091827393,0.01898687332868576,0.014501999132335186,0.03371145948767662
-43.586814880371094,-2.9476122856140137,-134.0844268798828,0.6122340559959412,-6.710481643676758,7.074838161468506,0.03846865892410278,0.0318942628800869,0.010449625551700592
-43.57272720336914,-2.948598861694336,-134.06521606445312,0.5950486063957214,-6.8237624168396,6.850882053375244,0.034713562577962875,0.018705615773797035,0.009209848940372467
-43.552852630615234,-2.9590072631835938,-134.0314178466797,0.58803790807724,-6.817460060119629,6.95045280456543,0.029377082362771034,-0.008691474795341492,0.024734998121857643
-43.52389144897461,-2.9820902347564697,-134.01316833496094,0.7114394307136536,-6.82087516784668,6.888112545013428,0.04238766431808472,-0.023882469162344933,0.015044773928821087
-43.51556396484375,-3.0011632442474365,-133.977783203125,0.6392145752906799,-6.878390312194824,6.84981632232666,0.038590095937252045,-0.033424798399209976,0.005512499250471592
-43.491798400878906,-3.001896858215332,-133.9168701171875,0.5633937120437622,-6.824618339538574,7.020380973815918,0.02104826271533966,-0.0545106902718544,0.03180541470646858
-43.41512680053711,-2.9944536685943604,-133.87098693847656,0.6004889607429504,-6.763106346130371,7.122384071350098,0.06409305334091187,-0.0504177026450634,0.05030389130115509
-43.349853515625,-2.991921901702881,-133.81253051757812,0.5675627589225769,-6.835811614990234,6.991096496582031,0.0944947898387909,-0.04710891470313072,0.049074191600084305
-43.3252067565918,-2.992220640182495,-133.7141876220703,0.5502034425735474,-6.757208824157715,6.800595760345459,0.08842071145772934,-0.06747470796108246,0.078888438642025
-43.3245964050293,-3.0263030529022217,-133.6245880126953,0.7169190049171448,-6.567557334899902,6.7435383796691895,0.05765165761113167,-0.09513422101736069,0.09500066936016083
-43.30176544189453,-3.1188135147094727,-133.55621337890625,0.8005967140197754,-6.453320503234863,6.95513916015625,0.03976469114422798,-0.12022744119167328,0.05715398117899895
-43.23928451538086,-3.25697922706604,-133.44332885742188,0.6835975050926208,-6.512123107910156,7.144551753997803,0.06394778192043304,-0.17146362364292145,0.014382417313754559
-43.157249450683594,-3.4118924140930176,-133.27235412597656,0.5686428546905518,-6.60629415512085,7.282004356384277,0.09563066065311432,-0.2564062774181366,0.021378889679908752
-43.03240203857422,-3.56697416305542,-133.07847595214844,0.48621129989624023,-6.778970241546631,7.348346710205078,0.12846575677394867,-0.3134025037288666,0.02575797215104103
-42.87814712524414,-3.7439732551574707,-132.8242645263672,0.40152642130851746,-6.899811267852783,7.2616777420043945,0.20527052879333496,-0.36871275305747986,0.058004118502140045
-42.73208236694336,-3.9223976135253906,-132.55715942382812,0.5091927647590637,-7.029108047485352,6.941802978515625,0.2201584130525589,-0.4699400067329407,0.08229939639568329
-42.51158905029297,-4.005194187164307,-132.3148193359375,0.4846305251121521,-7.024166107177734,7.128735065460205,0.2709084153175354,-0.44079920649528503,0.10560818016529083
-42.20253372192383,-4.004295825958252,-132.0228271484375,0.409546822309494,-6.877653121948242,7.284805774688721,0.36289840936660767,-0.41863423585891724,0.19045819342136383
-41.82608413696289,-3.956836700439453,-131.74606323242188,0.4873698651790619,-6.8400678634643555,7.513990879058838,0.48210984468460083,-0.3613016903400421,0.2932782769203186
-41.28923034667969,-3.972208023071289,-131.46775817871094,0.5370495319366455,-6.591412544250488,7.748720169067383,0.5701552033424377,-0.3161761164665222,0.31249308586120605
-40.33012008666992,-4.072141170501709,-131.03282165527344,-0.15516385436058044,-7.065596580505371,8.961583137512207,0.8819567561149597,-0.3839251399040222,0.3271763026714325
-38.96371078491211,-4.035858154296875,-130.3282928466797,-0.6231042742729187,-7.402241230010986,9.552899360656738,1.4154075384140015,-0.5549977421760559,0.4459657073020935
-37.47988510131836,-3.7044687271118164,-129.35691833496094,-1.3271461725234985,-7.660786151885986,9.707079887390137,1.9383538961410522,-0.5586564540863037,0.8666911721229553
-36.11882019042969,-3.328533411026001,-128.3900146484375,-0.5111919045448303,-7.504148960113525,9.077583312988281,2.175809860229492,-0.5936114192008972,1.2716270685195923
-34.903526306152344,-2.959322690963745,-127.69417572021484,0.24572254717350006,-7.102469444274902,8.508469581604004,2.2371766567230225,-0.4590336084365845,1.3376742601394653
-33.784942626953125,-2.5886378288269043,-127.08570861816406,0.5125090479850769,-6.386110782623291,7.958029270172119,2.1217918395996094,-0.31448572874069214,1.301249623298645
-32.46165466308594,-2.290355920791626,-126.391357421875,0.29679447412490845,-6.0453362464904785,8.496387481689453,2.1152760982513428,-0.2090693712234497,1.2821305990219116
-30.711153030395508,-2.6945712566375732,-125.18692016601562,-0.14300960302352905,-5.853709697723389,8.920998573303223,2.3647773265838623,-0.3292827010154724,1.3215768337249756
-28.53350067138672,-3.160578966140747,-123.83718872070312,-0.7066811323165894,-6.260164260864258,9.591063499450684,2.89945650100708,-1.5754684209823608,1.3765161037445068
-26.115724563598633,-2.42689847946167,-122.92394256591797,0.05930682644248009,-6.1910176277160645,10.08132553100586,3.4192442893981934,-0.6137387752532959,1.5256956815719604
-23.70360565185547,-2.0632545948028564,-121.44084930419922,-0.6933692097663879,-5.8432536125183105,9.623966217041016,3.744969129562378,-0.5450210571289062,1.925838589668274
-21.209186553955078,-1.722394347190857,-120.04566955566406,0.0924479141831398,-4.908318042755127,9.947298049926758,3.9778406620025635,-0.5994645357131958,2.2219882011413574
-18.389755249023438,-1.2865700721740723,-118.9671859741211,0.5480107665061951,-4.172798156738281,11.029067993164062,4.199824810028076,-0.33914607763290405,2.1783382892608643
-15.159758567810059,-0.8404281139373779,-117.8421859741211,0.019769608974456787,-4.2697434425354,12.090097427368164,4.737293720245361,-0.16746939718723297,2.0945963859558105
-11.860743522644043,-0.2833097279071808,-116.44795227050781,-0.40239715576171875,-4.124545574188232,11.604775428771973,5.129457950592041,0.038999348878860474,2.204131841659546
-8.454833030700684,0.29192739725112915,-114.77691650390625,-0.4033639430999756,-4.0742316246032715,11.248367309570312,5.379897117614746,0.17796854674816132,2.503924608230591
-5.100466251373291,0.9377521276473999,-113.10234069824219,0.4436212480068207,-3.9129953384399414,9.715988159179688,5.6869306564331055,0.31554362177848816,2.763315200805664
-2.385263204574585,1.5159549713134766,-111.74273681640625,1.425856590270996,-2.596348762512207,6.708760738372803,5.510128974914551,0.625141978263855,2.789736032485962
-0.28480854630470276,1.7580599784851074,-110.8531494140625,2.005430221557617,-1.2522838115692139,5.7933526039123535,4.848633289337158,0.5325655937194824,2.4427592754364014
1.8018858432769775,1.8958508968353271,-110.26515197753906,1.664183259010315,-0.6915168166160583,6.434713840484619,4.284811019897461,0.48149874806404114,1.9066942930221558
4.218048572540283,1.9258593320846558,-109.52701568603516,0.6064454317092896,-0.8596184849739075,7.3992600440979,4.1717095375061035,0.33144551515579224,1.558296799659729
6.696958541870117,1.9606540203094482,-108.44551849365234,0.033149976283311844,-0.3335988521575928,7.677587032318115,4.291327953338623,0.29648903012275696,1.618748426437378
8.800537109375,1.9297733306884766,-107.32907104492188,0.25705158710479736,0.8992578983306885,7.75522518157959,4.145693778991699,0.2749635875225067,1.8084602355957031
10.582268714904785,1.8225164413452148,-106.5459213256836,0.6892982721328735,2.0425193309783936,8.502260208129883,3.753511667251587,0.21168112754821777,1.7473664283752441
12.661893844604492,1.6181589365005493,-106.07649993896484,0.6501528024673462,2.415743827819824,9.890202522277832,3.4598405361175537,0.10186600685119629,1.4364534616470337
15.661909103393555,1.4005262851715088,-105.63261413574219,0.2533681094646454,2.0062739849090576,11.825902938842773,3.902238130569458,-0.05860511586070061,1.176931381225586
19.111709594726562,1.2256404161453247,-105.0705795288086,-0.37976688146591187,1.5420076847076416,11.82598876953125,4.778249740600586,0.014938977546989918,1.0892841815948486
22.350656509399414,0.8990647196769714,-104.37100982666016,-0.9828609228134155,1.1807012557983398,10.828782081604004,5.122371196746826,-0.041464999318122864,1.1206772327423096
25.641691207885742,0.5048274993896484,-103.3936538696289,-1.3408257961273193,0.6280845999717712,10.381414413452148,5.289244174957275,-0.03799371421337128,1.3066192865371704
28.97308921813965,0.06296240538358688,-102.15048217773438,-1.2812714576721191,0.6082514524459839,9.501296043395996,5.558145523071289,0.048162274062633514,1.6539915800094604
