Roll,Pitch,Yaw,AccX,AccY,AccZ,GyroX,GyroY,GyroZ
-172.4971466064453,56.690773010253906,-75.75712585449219,-8.009258270263672,-0.8126091361045837,-5.609429836273193,0.08404091745615005,-0.24021312594413757,0.1401955932378769
-172.5483856201172,56.9859619140625,-75.96346282958984,-8.163549423217773,-0.7039713859558105,-5.447900772094727,0.17130813002586365,-0.3242397904396057,0.19809375703334808
-172.68338012695312,57.322486877441406,-76.23553466796875,-8.10496711730957,-0.5231276750564575,-5.073948383331299,0.06822337210178375,-0.4615662395954132,0.2755889296531677
-172.97021484375,57.59230041503906,-76.52417755126953,-8.429643630981445,-0.5909262299537659,-4.8400678634643555,0.01945291832089424,-0.29320433735847473,0.251277893781662
-173.2574462890625,57.583255767822266,-76.73344421386719,-8.206014633178711,-0.6719103455543518,-4.796865463256836,-0.15274105966091156,-0.12585598230361938,0.21871317923069
-173.72886657714844,57.49033737182617,-77.07711791992188,-8.231974601745605,-0.5393415689468384,-5.002613544464111,-0.15296535193920135,0.03296492621302605,0.3356885313987732
-174.24420166015625,57.45518493652344,-77.55760955810547,-8.288546562194824,-0.5542108416557312,-5.341622829437256,-0.20088043808937073,-0.046433161944150925,0.32679325342178345
-174.59518432617188,57.62432098388672,-77.81769561767578,-8.310036659240723,-0.556370735168457,-5.437871932983398,-0.18892596662044525,-0.18741610646247864,0.28248345851898193
-174.7666473388672,57.89436340332031,-77.87615203857422,-8.385244369506836,-0.4605041444301605,-5.333784580230713,-0.23090936243534088,-0.3196837902069092,0.1451573520898819
-174.9090118408203,58.1601676940918,-77.8746109008789,-8.139063835144043,-0.5610194802284241,-5.0626749992370605,-0.2155950367450714,-0.32693809270858765,0.18003617227077484
-175.3343963623047,58.3414421081543,-78.22814178466797,-8.197012901306152,-0.32208961248397827,-4.942168235778809,-0.2409859448671341,-0.2764708399772644,0.3178885281085968
-175.99537658691406,58.4582633972168,-78.8561019897461,-8.228251457214355,-0.2719680070877075,-4.969791412353516,-0.20364364981651306,-0.20633815228939056,0.4520170986652374
-176.6979522705078,58.54279327392578,-79.57568359375,-8.240388870239258,-0.3855522871017456,-5.0853471755981445,-0.2015630602836609,-0.17095308005809784,0.5324361324310303
-177.421630859375,58.66243362426758,-80.27197265625,-8.298592567443848,-0.3520411252975464,-5.229017734527588,-0.23592790961265564,-0.20740443468093872,0.5647206902503967
-178.0777587890625,58.84727096557617,-80.86638641357422,-8.40306282043457,-0.31051647663116455,-5.300394058227539,-0.23134204745292664,-0.2613280713558197,0.5202471017837524
-178.52020263671875,59.09457015991211,-81.2514877319336,-8.509963035583496,-0.08931515365839005,-5.180596351623535,-0.2078394591808319,-0.36380788683891296,0.4060395061969757
-178.7576141357422,59.43460464477539,-81.30968475341797,-8.744973182678223,-0.010691549628973007,-4.907879829406738,-0.35669636726379395,-0.4862912595272064,0.18301916122436523
-178.8227996826172,59.70487594604492,-80.974853515625,-8.712770462036133,0.11510162055492401,-4.608466625213623,-0.4742286205291748,-0.35372090339660645,-0.061163391917943954
-178.8192901611328,59.643856048583984,-80.59011840820312,-8.513593673706055,-0.15029355883598328,-4.560397624969482,-0.4621599614620209,-0.031421735882759094,-0.09661289304494858
-178.9599151611328,59.3256721496582,-80.5054931640625,-8.376668930053711,-0.24830681085586548,-4.730328559875488,-0.39173024892807007,0.23491047322750092,-0.05084317550063133
-179.1855010986328,58.96388244628906,-80.63856506347656,-8.211376190185547,-0.4222312867641449,-5.186642169952393,-0.27169689536094666,0.37109124660491943,0.06317522376775742
-179.43064880371094,58.72746276855469,-80.96159362792969,-8.233098983764648,-0.18054215610027313,-5.562509059906006,-0.07256757467985153,0.2843867242336273,0.17346280813217163
-179.62879943847656,58.856842041015625,-81.3179931640625,-8.340928077697754,0.08017003536224365,-5.511453628540039,-0.01995527185499668,-0.13192111253738403,0.21551613509655
-179.92002868652344,59.46940612792969,-81.4991226196289,-8.452655792236328,0.2057294100522995,-5.106289863586426,-0.29615896940231323,-0.6482407450675964,0.1272299438714981
179.74554443359375,60.05776596069336,-81.49812316894531,-8.43873119354248,-0.10654336214065552,-4.696793079376221,-0.31441429257392883,-0.508073091506958,0.08758377283811569
179.46499633789062,60.071781158447266,-81.65701293945312,-8.445067405700684,0.07753604650497437,-4.424342155456543,-0.2381635457277298,-0.1621638387441635,0.17918935418128967
179.14122009277344,59.96499252319336,-81.80195617675781,-8.46086597442627,0.6100210547447205,-4.020331859588623,-0.43147242069244385,-0.15660353004932404,0.037388719618320465
178.99737548828125,60.05918502807617,-81.44547271728516,-8.996065139770508,0.11262039095163345,-4.536913871765137,-0.6036091446876526,-0.16234546899795532,-0.17019391059875488
179.0642852783203,59.95697784423828,-81.19792175292969,-9.146040916442871,0.16214807331562042,-4.592044830322266,-0.09231381863355637,0.1902138888835907,-0.003057346446439624
179.41586303710938,59.99544143676758,-81.29572296142578,-9.020885467529297,-0.48718681931495667,-4.232143402099609,0.24327006936073303,-0.4171256422996521,-0.08063250035047531
179.951416015625,60.281612396240234,-81.13510131835938,-7.910489082336426,-0.467241495847702,-3.692904472351074,0.3484208285808563,0.11264480650424957,-0.06376881152391434
-179.32568359375,59.73984146118164,-80.97384643554688,-8.90306282043457,-0.13911335170269012,-3.3904592990875244,0.9064919948577881,0.41892358660697937,-0.15536390244960785
-178.36465454101562,59.0350456237793,-80.61531066894531,-8.486756324768066,-0.12036252021789551,-4.42472505569458,0.5736072063446045,0.9210008978843689,-0.2501790523529053
-178.4435272216797,56.28108596801758,-80.72071838378906,-7.160544395446777,-0.13453298807144165,-7.865696430206299,0.3416467607021332,4.312083721160889,0.07897169888019562
-178.67823791503906,53.706634521484375,-80.81193542480469,-8.035660743713379,0.534087598323822,-9.566779136657715,-0.03116707131266594,1.1056934595108032,-0.313951313495636
-177.82008361816406,56.51529312133789,-79.28907012939453,-8.278609275817871,0.06969507038593292,-7.111578464508057,-0.35153552889823914,-1.7331860065460205,-0.9651895761489868
-175.6405487060547,58.46333312988281,-76.69027709960938,-8.112715721130371,-0.9688138961791992,-3.794991970062256,0.24654042720794678,-0.6861811280250549,-1.5846636295318604
-174.19924926757812,57.39878463745117,-75.43695068359375,-8.563566207885742,-0.6410331726074219,-2.533653974533081,0.08901970833539963,0.691236674785614,-0.6910799741744995
-174.4871826171875,54.92890548706055,-76.15742492675781,-8.355415344238281,-1.1105880737304688,-4.020672798156738,0.7330983281135559,2.9830307960510254,-0.6077478528022766
-173.7936553955078,51.72107696533203,-76.30663299560547,-7.500062942504883,-0.7745653986930847,-6.503584861755371,0.7994366884231567,3.2891294956207275,-0.5012564063072205
-172.9920196533203,50.350914001464844,-75.95317077636719,-7.79440975189209,-1.106400728225708,-7.796440124511719,0.8550962805747986,2.0263099670410156,-0.7632748484611511
-171.6172637939453,50.57242965698242,-74.896728515625,-7.647772789001465,-0.7771220803260803,-7.336935997009277,0.8852389454841614,0.7295994162559509,-0.871475100517273
-170.00901794433594,51.08817672729492,-73.67562866210938,-8.128328323364258,-0.4509599804878235,-6.823971748352051,1.0909512042999268,0.1979156881570816,-1.09971022605896
-167.57647705078125,51.26422882080078,-71.74651336669922,-8.750120162963867,-1.3648548126220703,-6.56802225112915,1.3947288990020752,-0.17659114301204681,-1.7933324575424194
-164.20962524414062,51.216575622558594,-69.05743408203125,-7.573533058166504,-1.552441120147705,-6.671095848083496,1.8927762508392334,-0.2480374425649643,-2.184319019317627
-160.75357055664062,51.08502197265625,-66.62197875976562,-7.80784797668457,-1.0010759830474854,-6.794327735900879,2.214750289916992,-0.5150538682937622,-2.218024969100952
-156.95082092285156,51.13036346435547,-64.03654479980469,-7.9541707038879395,-1.8787513971328735,-6.909872531890869,2.78309965133667,-0.8392059206962585,-2.586272716522217
-152.189453125,51.16845703125,-60.8185920715332,-7.108884334564209,-3.4199981689453125,-6.711796760559082,3.3493378162384033,-1.2542691230773926,-2.7905263900756836
-147.03501892089844,51.33103561401367,-57.403873443603516,-7.074130535125732,-3.95654296875,-6.340411186218262,3.7557430267333984,-1.7321664094924927,-2.8801307678222656
-141.61346435546875,51.602928161621094,-53.7420654296875,-6.794984817504883,-4.955376148223877,-4.845883846282959,4.02310037612915,-2.244598150253296,-2.88596248626709
-136.15342712402344,51.61083221435547,-50.002193450927734,-7.896408557891846,-4.7616963386535645,-3.538313865661621,4.106525421142578,-2.1781585216522217,-3.0650124549865723
-131.24478149414062,50.56914138793945,-46.57289123535156,-7.297942638397217,-5.313449859619141,-2.963218927383423,3.8276925086975098,-1.5161112546920776,-3.721665143966675
-127.12721252441406,48.48234939575195,-43.48067092895508,-7.915327548980713,-5.297832012176514,-3.293647289276123,3.416213035583496,-0.9993119835853577,-4.338845252990723
-123.45906066894531,45.626583099365234,-40.409324645996094,-7.871381759643555,-6.2398600578308105,-3.551001787185669,2.9331107139587402,-0.5341517925262451,-5.534012317657471
-119.7393798828125,41.90129089355469,-36.82612991333008,-6.336491584777832,-7.756438255310059,-3.0702030658721924,2.6969845294952393,-0.7753807306289673,-6.687891483306885
-116.04816436767578,37.183494567871094,-32.81446075439453,-6.473987579345703,-9.870209693908691,-3.7123727798461914,2.179607629776001,-0.5883482694625854,-8.662481307983398
-112.77735137939453,31.59501838684082,-28.369741439819336,-6.857295989990234,-12.648734092712402,-3.2838947772979736,1.8775547742843628,-1.809748649597168,-9.552359580993652
-109.98831176757812,26.389116287231445,-23.43791961669922,-7.241040229797363,-14.995479583740234,-2.6859793663024902,0.7657073736190796,-2.419149875640869,-10.358107566833496
-109.00518035888672,21.031877517700195,-18.874237060546875,-7.850880146026611,-16.763574600219727,-2.3835246562957764,-0.5061365365982056,-2.93341326713562,-10.499757766723633
-109.49600982666016,16.417287826538086,-14.791421890258789,-8.284360885620117,-18.998510360717773,-1.632995843887329,-2.012232780456543,-2.966718912124634,-9.744956016540527
-111.17872619628906,12.751482963562012,-10.79015827178955,-9.597678184509277,-20.470802307128906,-1.4798774719238281,-3.2773475646972656,-3.7335455417633057,-9.170434951782227
-113.00811767578125,9.58205509185791,-6.52825403213501,-10.389729499816895,-19.81711769104004,-0.855303168296814,-3.5525965690612793,-3.5298876762390137,-8.411162376403809
-114.66315460205078,7.032485008239746,-3.683535099029541,-10.35763931274414,-21.292015075683594,-0.478242427110672,-3.3316633701324463,-2.576946258544922,-6.740448474884033
-116.12407684326172,6.666974067687988,-1.9122583866119385,-12.3779878616333,-19.33892822265625,-0.20446567237377167,-3.10436749458313,-3.1268410682678223,-3.4971752166748047
-116.94432830810547,9.488624572753906,-1.0581737756729126,-12.588021278381348,-12.951201438903809,0.678181529045105,-2.0786685943603516,-2.629284143447876,0.6472053527832031
-117.31742095947266,14.220963478088379,-3.636134147644043,-12.189888000488281,-11.79217529296875,0.3796336352825165,-0.9220613241195679,-0.05499487370252609,5.292362689971924
-118.17559051513672,20.690580368041992,-9.703062057495117,-10.69305419921875,-14.56901741027832,-0.34737518429756165,0.24117690324783325,1.4054449796676636,10.032487869262695
-120.0965576171875,29.018619537353516,-17.140609741210938,-9.18746280670166,-12.282400131225586,-0.6997541189193726,0.8123789429664612,2.0472750663757324,13.666179656982422
-125.28874206542969,38.38365936279297,-27.914228439331055,-6.616205215454102,-11.454801559448242,-1.3084518909454346,0.8618083000183105,3.8795735836029053,18.524394989013672
-136.66131591796875,46.4976806640625,-45.745887756347656,-4.61548376083374,-13.68436336517334,-1.7422938346862793,0.9597346782684326,6.299633026123047,20.7858829498291
-152.85850524902344,50.164039611816406,-67.646728515625,-4.097958564758301,-17.769912719726562,-2.750523805618286,-0.3912903666496277,7.2134575843811035,22.011241912841797
-170.297119140625,51.36201858520508,-88.81336212158203,-2.7052218914031982,-16.443891525268555,-2.923999071121216,-0.7827500104904175,3.975525140762329,21.61025047302246
172.3204803466797,51.83063507080078,-108.48697662353516,0.01372377760708332,-11.990715026855469,-2.0889291763305664,-1.7331879138946533,2.354555368423462,21.745807647705078
155.9237823486328,47.83551788330078,-127.1806640625,1.1430866718292236,-10.995880126953125,-2.182558059692383,-2.1280317306518555,1.9961926937103271,21.969507217407227
144.7552947998047,40.95949172973633,-141.03480529785156,2.820012331008911,-9.993895530700684,-1.7367398738861084,-2.068910837173462,2.046578884124756,20.640981674194336
138.1565704345703,33.596981048583984,-150.46273803710938,4.254691123962402,-9.609331130981445,-2.055610418319702,-1.7145315408706665,1.8645687103271484,19.494098663330078
133.98243713378906,26.402830123901367,-158.27223205566406,5.866387367248535,-8.853424072265625,-1.992989182472229,-0.7964180111885071,1.170522928237915,18.301076889038086
132.04933166503906,19.652929306030273,-164.8340301513672,7.425976753234863,-8.516260147094727,-2.0400750637054443,0.44605642557144165,1.328519582748413,16.955419540405273
132.45791625976562,13.202109336853027,-169.94659423828125,8.612462997436523,-7.993707656860352,-2.370864152908325,1.9659769535064697,1.539126992225647,15.385221481323242
134.51979064941406,7.912335395812988,-174.30982971191406,9.528822898864746,-6.687394618988037,-2.935624599456787,3.43357253074646,1.261167287826538,13.367116928100586
137.7894287109375,4.448957443237305,-177.99771118164062,10.356352806091309,-5.323578357696533,-3.6514804363250732,5.0134196281433105,0.735275387763977,10.744112968444824
142.27760314941406,3.051557779312134,179.2733917236328,11.017963409423828,-3.7461559772491455,-4.570196628570557,6.692022800445557,-0.062324050813913345,7.725761413574219
147.66314697265625,3.710498094558716,177.7998046875,11.28943157196045,-2.717315196990967,-5.445528984069824,8.034377098083496,-0.9739763736724854,4.310262203216553
153.50364685058594,6.538973808288574,178.0552215576172,10.867589950561523,-2.472784996032715,-6.645525932312012,8.972450256347656,-2.5281527042388916,0.42974022030830383
159.60800170898438,11.74084758758545,-179.69622802734375,10.132685661315918,-2.053429126739502,-7.702509880065918,9.276411056518555,-4.559831142425537,-3.589892864227295
166.11204528808594,18.414470672607422,-174.8864288330078,9.047687530517578,-2.7960243225097656,-8.449726104736328,8.98688793182373,-6.0158915519714355,-7.590685844421387
173.63949584960938,25.227731704711914,-166.8628387451172,7.477255821228027,-3.701658248901367,-9.118887901306152,8.338547706604004,-7.201301574707031,-11.27875804901123
-177.05108642578125,31.46289825439453,-155.21768188476562,5.601789951324463,-5.084785461425781,-9.460232734680176,7.307831764221191,-8.372082710266113,-14.897065162658691
-165.5166778564453,36.13802719116211,-139.33827209472656,4.1280717849731445,-8.151225090026855,-9.19775390625,5.712647438049316,-9.507975578308105,-18.323486328125
-152.52114868164062,37.83517837524414,-119.93168640136719,2.5981862545013428,-11.62015151977539,-8.771086692810059,3.7567803859710693,-10.315714836120605,-21.218307495117188
-140.21910095214844,35.65884780883789,-99.0362777709961,1.4162261486053467,-16.44632911682129,-8.092058181762695,1.4413114786148071,-11.173017501831055,-23.93662452697754
-130.89064025878906,29.92379379272461,-78.43087005615234,0.8668449521064758,-22.6095027923584,-7.25773811340332,-1.1204829216003418,-12.0027437210083,-26.23130989074707
-125.88568878173828,21.90319061279297,-58.99878692626953,0.8394809365272522,-30.262819290161133,-6.496638774871826,-3.8296687602996826,-13.10409164428711,-27.953969955444336
-125.12277221679688,13.409500122070312,-40.11453628540039,1.3829394578933716,-37.94281768798828,-6.044195175170898,-6.508946895599365,-14.512036323547363,-28.85702133178711
-128.1361083984375,6.486790657043457,-21.2935733795166,1.1515631675720215,-42.24570846557617,-5.515990257263184,-9.143685340881348,-16.0745849609375,-28.274133682250977
-133.82220458984375,3.2900495529174805,-2.9823689460754395,-0.5434545874595642,-41.94569396972656,-4.889901161193848,-11.394638061523438,-17.537378311157227,-25.760652542114258
-139.99684143066406,4.902553081512451,13.381986618041992,-3.827526807785034,-37.607852935791016,-3.116718292236328,-12.46851634979248,-18.7587890625,-21.31413459777832
-144.4080810546875,10.173264503479004,26.167348861694336,-7.358919620513916,-31.300289154052734,-0.16004620492458344,-11.844082832336426,-18.54243278503418,-15.816118240356445
-146.71701049804688,16.907394409179688,33.96662139892578,-11.061707496643066,-22.819747924804688,3.751652956008911,-9.787748336791992,-16.64262580871582,-9.147464752197266
-147.44419860839844,23.80970573425293,36.01116943359375,-13.008755683898926,-15.277949333190918,6.936275959014893,-6.360517501831055,-13.123822212219238,-2.2707531452178955
-147.44790649414062,29.8055419921875,32.21530532836914,-13.973241806030273,-9.86638069152832,8.911935806274414,-1.9894893169403076,-8.5010347366333,4.406512260437012
-147.7207794189453,34.40459060668945,22.95622444152832,-12.621246337890625,-9.275976181030273,8.691224098205566,2.3216354846954346,-3.3271572589874268,9.829107284545898
-149.03256225585938,37.39236068725586,9.642903327941895,-10.979148864746094,-9.499649047851562,6.5592169761657715,5.74432373046875,1.0405257940292358,13.856178283691406
-151.6084747314453,39.52188491821289,-6.391531467437744,-8.903103828430176,-10.307916641235352,3.951071262359619,8.438385963439941,3.965580463409424,17.218700408935547
-155.7861328125,41.07206726074219,-24.807411193847656,-6.474382400512695,-12.566588401794434,1.888403296470642,10.157878875732422,6.061521053314209,19.989925384521484
-161.58767700195312,41.298519134521484,-44.849693298339844,-4.257936954498291,-14.93426513671875,0.06015370786190033,10.763307571411133,7.368077278137207,22.02034568786621
-168.25331115722656,39.93705368041992,-65.38489532470703,-2.0527877807617188,-16.70989990234375,-1.3740801811218262,10.82882022857666,7.968505859375,23.753454208374023
-174.87139892578125,37.223785400390625,-85.76970672607422,-0.021624170243740082,-19.095483779907227,-2.328981876373291,10.515674591064453,7.812214374542236,25.1698055267334
179.50025939941406,33.528594970703125,-104.95120239257812,1.3818296194076538,-21.0419864654541,-3.027496576309204,10.065892219543457,7.154595375061035,25.604921340942383
175.79029846191406,29.381521224975586,-122.04412841796875,3.3520123958587646,-21.237295150756836,-3.6827986240386963,9.843962669372559,6.407176494598389,25.20888900756836
174.0297393798828,25.588253021240234,-137.54576110839844,4.933656692504883,-21.857086181640625,-4.391243934631348,9.924774169921875,5.0772480964660645,24.728557586669922
173.64288330078125,22.802261352539062,-151.93275451660156,6.424678325653076,-21.37537384033203,-4.825045108795166,10.121833801269531,3.6684091091156006,23.458772659301758
174.5270538330078,21.138975143432617,-164.4993896484375,7.980831623077393,-19.698123931884766,-5.474108695983887,10.137932777404785,2.3952393531799316,21.437849044799805
176.506591796875,20.579191207885742,-174.89065551757812,9.224273681640625,-17.351032257080078,-6.704118251800537,10.372448921203613,1.2340513467788696,18.657894134521484
179.76394653320312,21.56802749633789,177.3612518310547,10.27886962890625,-13.720684051513672,-8.142837524414062,10.746136665344238,-0.39198505878448486,14.99174976348877
-175.7805633544922,24.44500160217285,172.9937286376953,10.846015930175781,-9.666271209716797,-9.885018348693848,10.967236518859863,-2.3587169647216797,10.388116836547852
-169.86114501953125,28.578445434570312,173.04660034179688,11.186683654785156,-4.874035358428955,-11.692948341369629,10.718463897705078,-4.2595391273498535,4.864591598510742
-161.95571899414062,32.68366241455078,178.4945068359375,10.224021911621094,-0.09440365433692932,-13.823342323303223,9.811267852783203,-5.959236145019531,-1.2443004846572876
-151.6018829345703,35.74898910522461,-170.08070373535156,8.028314590454102,1.4147248268127441,-15.592890739440918,8.329659461975098,-8.518434524536133,-7.531693935394287
-138.47433471679688,37.092288970947266,-152.50279235839844,5.001401901245117,-0.6790614128112793,-16.238365173339844,6.573864459991455,-12.220541000366211,-13.417476654052734
-124.25477600097656,34.23201370239258,-130.35055541992188,2.5493335723876953,-6.001727104187012,-14.981123924255371,3.9180376529693604,-15.374635696411133,-19.50568199157715
-114.49066162109375,25.425127029418945,-108.03373718261719,1.8712490797042847,-16.36356544494629,-12.696014404296875,0.23463474214076996,-17.316274642944336,-24.776206970214844
-112.26900482177734,13.555846214294434,-87.85242462158203,3.387737274169922,-30.007850646972656,-10.594857215881348,-4.100656032562256,-18.481006622314453,-28.00611686706543
-116.35553741455078,2.9834001064300537,-68.31925964355469,4.548250198364258,-40.85194396972656,-10.05495834350586,-7.928187370300293,-19.832548141479492,-28.67296028137207
-124.9266586303711,-3.151925563812256,-48.369014739990234,3.9531309604644775,-42.799705505371094,-9.395835876464844,-12.16333293914795,-21.266300201416016,-27.052698135375977
-136.29969787597656,-2.4366257190704346,-29.454225540161133,1.278403639793396,-40.912376403808594,-8.898801803588867,-16.08197021484375,-22.110671997070312,-22.75528907775879
-146.57797241210938,5.691882610321045,-14.401894569396973,-2.6531929969787598,-34.03977584838867,-7.398351192474365,-17.667951583862305,-23.937255859375,-16.363344192504883
-153.04942321777344,18.978544235229492,-4.4468913078308105,-5.818127155303955,-23.967985153198242,-3.28061842918396,-17.06360626220703,-24.66948127746582,-8.215132713317871
-157.79554748535156,33.570526123046875,-1.6013474464416504,-7.6974101066589355,-16.465065002441406,1.6078613996505737,-14.815351486206055,-22.12042808532715,0.27606987953186035
-164.75094604492188,44.953041076660156,-7.154540061950684,-7.761509895324707,-13.45943546295166,5.318724632263184,-11.558807373046875,-16.53740692138672,6.288364887237549
-175.1427459716797,50.713111877441406,-19.218393325805664,-7.937461853027344,-10.577284812927246,7.167308807373047,-8.20873737335205,-11.039777755737305,10.0170259475708
174.00131225585938,52.43601989746094,-33.884544372558594,-6.835710048675537,-7.516056060791016,7.423932075500488,-3.982072591781616,-7.199001312255859,12.292686462402344
165.4181671142578,52.10786437988281,-48.86527633666992,-5.270634174346924,-5.6229963302612305,7.243683815002441,0.4005015790462494,-4.776368141174316,13.992066383361816
159.3133544921875,49.84668731689453,-63.44895935058594,-3.2455198764801025,-4.856486797332764,6.426252365112305,4.111815452575684,-2.1983437538146973,15.183941841125488
156.5410919189453,45.54756164550781,-76.33724212646484,-1.7292985916137695,-4.985040187835693,4.630868911743164,7.428541660308838,-0.16466742753982544,15.979453086853027
156.9019317626953,40.67032241821289,-87.85784149169922,-0.05380571633577347,-6.41267204284668,2.773181676864624,10.553624153137207,1.0325360298156738,16.288761138916016
159.79893493652344,36.02770233154297,-98.50881958007812,1.442348837852478,-8.908698081970215,1.160103678703308,13.21960735321045,1.9765660762786865,16.30393409729004
164.56884765625,31.877086639404297,-108.5095443725586,2.757281541824341,-11.626568794250488,-0.39041265845298767,15.213138580322266,2.448497772216797,16.004323959350586
170.48069763183594,28.707643508911133,-118.1063461303711,3.9671475887298584,-14.12169361114502,-1.8098804950714111,16.6886043548584,2.567378520965576,15.542082786560059
177.2518768310547,26.91029930114746,-127.24336242675781,4.797440528869629,-16.197500228881836,-3.1674563884735107,17.77602195739746,2.1129775047302246,14.678018569946289
-175.33590698242188,26.749731063842773,-135.43296813964844,5.635768890380859,-17.2229061126709,-4.371067047119141,18.436033248901367,1.5262563228607178,13.280623435974121
-167.23281860351562,27.899797439575195,-141.9214630126953,6.093939304351807,-16.97616195678711,-5.9206695556640625,18.824087142944336,0.7548256516456604,11.257911682128906
-158.21585083007812,30.2836971282959,-145.88507080078125,6.291036128997803,-15.910051345825195,-7.592494010925293,18.88551902770996,-0.6489577293395996,8.549521446228027
-147.87464904785156,33.40086364746094,-146.23736572265625,6.170065879821777,-13.927453994750977,-9.34256362915039,18.58504867553711,-2.330232858657837,4.898740291595459
-135.63717651367188,35.79482650756836,-141.90469360351562,5.469845771789551,-11.66006851196289,-11.134201049804688,17.650203704833984,-4.302598476409912,0.4542129635810852
-121.95193481445312,35.84501266479492,-132.88523864746094,4.241879940032959,-10.89833927154541,-12.537178039550781,15.870798110961914,-6.643758773803711,-4.520933628082275
-108.74652862548828,32.196224212646484,-120.77510833740234,2.6847434043884277,-11.594171524047852,-13.250120162963867,13.17709732055664,-9.189972877502441,-9.476053237915039
-98.72158813476562,24.5410099029541,-107.92352294921875,1.0767087936401367,-13.768548965454102,-13.251082420349121,9.547765731811523,-11.784424781799316,-14.003701210021973
-93.672607421875,13.649230003356934,-95.4771499633789,-0.16657701134681702,-17.321842193603516,-12.609408378601074,5.153274059295654,-13.989845275878906,-17.95888328552246
-94.41329193115234,1.3229340314865112,-82.95870208740234,-0.6912012696266174,-22.831989288330078,-11.594559669494629,0.010206981562077999,-15.980448722839355,-20.411041259765625
-101.01294708251953,-9.41513729095459,-68.74717712402344,-0.933533251285553,-27.944272994995117,-10.676637649536133,-5.219117641448975,-18.008628845214844,-20.84282112121582
-112.58863830566406,-15.426079750061035,-52.38139724731445,-1.4548300504684448,-30.776145935058594,-9.814177513122559,-10.021770477294922,-19.676904678344727,-18.8878116607666
-126.24744415283203,-14.499751091003418,-36.4244499206543,-2.8685190677642822,-30.699989318847656,-8.603094100952148,-13.660470008850098,-20.569377899169922,-14.69090747833252
-138.08314514160156,-7.419394493103027,-24.67462921142578,-4.781148433685303,-27.337736129760742,-6.530337810516357,-15.383434295654297,-20.333927154541016,-9.044779777526855
-146.71046447753906,2.9932076930999756,-18.898204803466797,-6.576996326446533,-22.290212631225586,-3.7199854850769043,-15.281134605407715,-18.907394409179688,-2.5253307819366455
-153.06378173828125,14.05589771270752,-18.922971725463867,-7.4312968254089355,-17.72491455078125,-0.7837467193603516,-13.484628677368164,-16.192712783813477,3.54978346824646
-158.5741424560547,23.217750549316406,-23.883975982666016,-7.346523761749268,-13.95602035522461,1.6202741861343384,-10.597285270690918,-12.115104675292969,8.35341739654541
-164.01638793945312,29.195053100585938,-32.6256103515625,-6.613053321838379,-11.204965591430664,2.904416799545288,-7.286233425140381,-7.904069423675537,11.684194564819336
-168.92811584472656,32.45289611816406,-43.388858795166016,-5.496150016784668,-9.664917945861816,3.081752061843872,-3.577759027481079,-4.523448944091797,13.78541088104248
-172.49623107910156,34.03948974609375,-54.74514389038086,-4.083788871765137,-8.733121871948242,2.8526251316070557,-0.005464175716042519,-2.1080291271209717,14.87148380279541
-174.6182098388672,34.37528991699219,-65.81245422363281,-2.6670520305633545,-8.17549991607666,2.1763336658477783,2.9872219562530518,-0.023765157908201218,14.993847846984863
-175.0880584716797,33.721961975097656,-75.94110107421875,-1.453020453453064,-7.792542934417725,1.0181652307510376,5.588476181030273,1.3626682758331299,14.453486442565918
-173.86468505859375,32.90947341918945,-84.89265441894531,-0.2882520854473114,-7.45106315612793,-0.1624561846256256,7.79922342300415,2.174032211303711,13.422490119934082
-171.1792449951172,32.18656539916992,-92.59245300292969,0.6947179436683655,-7.2306132316589355,-1.3857738971710205,9.521663665771484,2.7253634929656982,12.054230690002441
-167.30873107910156,31.641633987426758,-98.99024963378906,1.497286319732666,-7.144100189208984,-2.666778326034546,10.786249160766602,2.8760483264923096,10.434759140014648
-162.4887237548828,31.511272430419922,-104.0451431274414,2.1713674068450928,-6.886868953704834,-3.936027765274048,11.68332290649414,2.672701835632324,8.696354866027832
-156.84266662597656,31.723169326782227,-107.6651840209961,2.562807083129883,-6.941020488739014,-5.16826868057251,12.236884117126465,2.3040032386779785,6.738612651824951
-150.37490844726562,32.06057357788086,-109.62979125976562,2.7784054279327393,-7.317492961883545,-6.328300476074219,12.520731925964355,1.6966252326965332,4.632882118225098
-143.15501403808594,32.33634948730469,-109.8840103149414,2.761681079864502,-7.91722297668457,-7.388274192810059,12.539210319519043,0.9589730501174927,2.442484140396118
-135.38671875,32.16072463989258,-108.50325012207031,2.5117647647857666,-8.676013946533203,-8.325422286987305,12.234307289123535,0.1780054122209549,0.18634033203125
-127.45915985107422,31.23151206970215,-105.6567611694336,1.9855701923370361,-9.502318382263184,-9.158387184143066,11.497149467468262,-0.7836045026779175,-2.0152742862701416
-119.89907836914062,29.4482479095459,-101.61763763427734,1.2537226676940918,-10.189167022705078,-9.78131103515625,10.323619842529297,-1.8634463548660278,-4.04887056350708
-113.40514373779297,26.753171920776367,-96.87918853759766,0.4353350102901459,-10.587349891662598,-10.185931205749512,8.543444633483887,-2.8455653190612793,-5.744216442108154
-108.60577392578125,23.289583206176758,-91.87805938720703,-0.6350175738334656,-10.958816528320312,-10.563238143920898,6.386228561401367,-3.765662670135498,-7.069703578948975
-105.70533752441406,19.38716697692871,-86.77046966552734,-1.591328740119934,-11.16375732421875,-10.60917854309082,3.8825578689575195,-4.554514408111572,-7.910672187805176
-104.85774993896484,15.48604679107666,-81.63282775878906,-2.744317054748535,-11.083941459655762,-10.446846008300781,1.189328908920288,-5.227780818939209,-8.255061149597168
-106.05177307128906,12.153694152832031,-76.46043395996094,-3.709779977798462,-11.1307954788208,-9.92894172668457,-1.6721985340118408,-5.792388439178467,-7.86536979675293
-108.98469543457031,10.009319305419922,-71.20899963378906,-4.625356197357178,-11.900702476501465,-9.144441604614258,-4.1965413093566895,-6.437587261199951,-6.940047264099121
-112.94232940673828,9.26231575012207,-65.94222259521484,-5.291038513183594,-12.146397590637207,-8.090760231018066,-6.159149646759033,-6.936041831970215,-5.605056285858154
-117.49327087402344,9.911913871765137,-61.19620132446289,-5.754936218261719,-12.647749900817871,-6.8572587966918945,-7.613521099090576,-6.999040603637695,-3.9435911178588867
-122.22882843017578,11.674079895019531,-57.522884368896484,-6.071392059326172,-12.950743675231934,-5.668189525604248,-8.253325462341309,-6.566842079162598,-2.2684662342071533
-126.67761993408203,14.095083236694336,-55.201229095458984,-6.336273193359375,-12.154139518737793,-4.5029988288879395,-8.226896286010742,-5.7738800048828125,-0.5365639328956604
-130.6809539794922,17.07025146484375,-54.22080612182617,-6.489731311798096,-11.446104049682617,-3.451613426208496,-7.661823749542236,-5.035762786865234,1.2013994455337524
-134.1343231201172,20.324987411499023,-54.481266021728516,-6.32304573059082,-10.713348388671875,-2.461857795715332,-6.627403736114502,-3.9673571586608887,2.7197909355163574
-137.1671142578125,23.48238182067871,-56.13008499145508,-5.921097278594971,-9.890314102172852,-1.7935220003128052,-5.424298286437988,-2.87217116355896,4.2047271728515625
-139.6601104736328,26.42177391052246,-58.88446044921875,-5.7882914543151855,-10.083100318908691,-1.4502229690551758,-3.692479133605957,-1.766172170639038,5.147161960601807
-141.1100616455078,28.686071395874023,-62.121055603027344,-5.166473388671875,-8.187027931213379,-1.2659170627593994,-1.7882221937179565,-0.6969510316848755,5.422689914703369
-141.88111877441406,30.247236251831055,-65.67357635498047,-4.901241302490234,-6.8456130027771,-1.3276962041854858,-0.31900668144226074,0.39554306864738464,5.631727695465088
-142.36822509765625,31.379730224609375,-69.38629913330078,-4.424002170562744,-6.585477828979492,-1.6295814514160156,0.8756417632102966,0.9495199918746948,5.377634525299072
-142.2747344970703,32.27876281738281,-72.71395111083984,-3.953050136566162,-6.023143291473389,-2.0792317390441895,1.9581363201141357,1.3733336925506592,5.1012492179870605
-141.6451416015625,33.003662109375,-75.88307189941406,-3.519044876098633,-6.4674072265625,-2.5818121433258057,2.9373648166656494,1.5907914638519287,4.705984592437744
-140.38967895507812,33.39634704589844,-78.74392700195312,-3.2595605850219727,-6.240855693817139,-3.1413707733154297,3.898468494415283,2.0122339725494385,4.04846715927124
-138.68775939941406,33.164581298828125,-81.43114471435547,-3.0020856857299805,-5.505594253540039,-3.78729248046875,4.505831241607666,2.579765796661377,3.362434148788452
-136.91990661621094,32.478851318359375,-83.95601654052734,-2.947216272354126,-5.815215587615967,-4.454395294189453,4.775262832641602,2.930126190185547,2.6367032527923584
-134.88076782226562,31.565746307373047,-86.079833984375,-2.7558321952819824,-6.007500171661377,-5.149735927581787,5.17467737197876,3.0861105918884277,1.883797287940979
-132.34298706054688,30.463003158569336,-87.84806060791016,-2.6257288455963135,-6.575249671936035,-5.659477710723877,5.547536373138428,3.197178840637207,1.1665940284729004
-129.4595947265625,29.239490509033203,-89.1912841796875,-2.73002028465271,-7.667261123657227,-6.2212138175964355,5.758726119995117,2.927292585372925,0.41542577743530273
-126.23847961425781,27.968597412109375,-89.8381118774414,-2.9487690925598145,-7.8546342849731445,-6.548367500305176,5.8891921043396,2.512932062149048,-0.44279807806015015
-123.09132385253906,26.408777236938477,-89.99493408203125,-3.1780033111572266,-7.53852653503418,-6.698297023773193,5.419020175933838,2.2697601318359375,-1.303524136543274
-120.81659698486328,24.522321701049805,-90.16138458251953,-3.311800956726074,-7.616828918457031,-6.806457042694092,4.49657678604126,2.320554733276367,-1.8042285442352295
-119.55902099609375,22.682912826538086,-90.74420928955078,-3.213163375854492,-8.328906059265137,-6.909554481506348,3.48101806640625,2.456146001815796,-1.7607572078704834
-118.93795013427734,21.208539962768555,-91.62268829345703,-3.6479313373565674,-7.852596759796143,-7.10507869720459,2.659177303314209,2.4047160148620605,-1.5347932577133179
-118.9988784790039,20.070566177368164,-92.44570922851562,-3.6091485023498535,-6.461479663848877,-6.851515769958496,1.2136913537979126,2.2115578651428223,-1.274798035621643
-120.21794128417969,19.296667098999023,-93.37586212158203,-3.320431709289551,-6.0756120681762695,-6.591212749481201,-0.14375841617584229,2.2242443561553955,-0.6177040934562683
-121.89490509033203,19.009960174560547,-94.46253204345703,-3.1236658096313477,-5.876213073730469,-6.233221530914307,-0.9321410059928894,1.8040590286254883,-0.10289428383111954
-123.33647155761719,19.123533248901367,-94.98787689208984,-2.4178731441497803,-6.0078935623168945,-5.4071807861328125,-1.422179937362671,1.0601370334625244,0.15432049334049225
-124.62275695800781,19.330894470214844,-95.3366470336914,-1.8183211088180542,-5.2898406982421875,-4.646245956420898,-1.5548555850982666,1.0285905599594116,0.3967224359512329
-125.9516830444336,19.92554473876953,-95.86957550048828,-0.8752326369285583,-4.780043601989746,-3.517854928970337,-1.8777611255645752,0.15821422636508942,1.1151529550552368
-127.25859832763672,22.428930282592773,-96.3518295288086,0.7559861540794373,-10.185972213745117,-3.121256113052368,-1.634246826171875,-1.0864254236221313,3.2898268699645996
-124.92306518554688,26.772686004638672,-94.90516662597656,-0.6703750491142273,-16.368938446044922,-3.7779276371002197,2.759908437728882,-5.036571025848389,2.6273741722106934
-115.79017639160156,28.43074607849121,-88.40177917480469,-0.20949070155620575,-13.605134010314941,-2.1001734733581543,6.461575984954834,-6.002881050109863,-1.7677525281906128
-108.35538482666016,23.44003677368164,-83.5670166015625,0.2713368833065033,-6.364501476287842,-2.1857993602752686,5.943487644195557,-2.4185309410095215,-6.302698135375977
-106.73133850097656,16.121007919311523,-83.00450134277344,-0.9127886295318604,-3.758478879928589,-3.7501327991485596,3.6047754287719727,0.004020023625344038,-7.580751419067383
-106.77825927734375,11.58862590789795,-81.66170501708984,-1.0353446006774902,-7.122530937194824,-4.528000831604004,2.0195741653442383,-1.8618879318237305,-6.816068172454834
-105.44599914550781,9.831701278686523,-77.57679748535156,-0.9560878276824951,-11.643199920654297,-3.883256435394287,2.277540683746338,-3.8576247692108154,-5.781731605529785
-102.94648742675781,7.808389186859131,-73.15715789794922,-1.1572266817092896,-13.004158020019531,-3.1474790573120117,2.5920028686523438,-4.626364231109619,-6.361819744110107
-101.08161163330078,3.991576671600342,-69.42396545410156,-1.6404930353164673,-11.694214820861816,-3.127133846282959,2.211061477661133,-4.198266506195068,-7.266961097717285
-100.50997924804688,-0.3603546619415283,-66.3637924194336,-2.269876718521118,-10.735973358154297,-3.381758451461792,1.3318833112716675,-4.146504878997803,-7.553607940673828
-100.87650299072266,-3.9521844387054443,-62.842132568359375,-2.544973611831665,-11.076374053955078,-3.3423495292663574,0.4843955934047699,-4.785043716430664,-7.067409038543701
-102.2981948852539,-7.350092887878418,-59.24054718017578,-3.924938201904297,-13.296100616455078,-0.8680586814880371,-1.1659709215164185,-4.185843467712402,-7.6053571701049805
-105.09957122802734,-12.903773307800293,-59.11927795410156,-3.321136236190796,-15.84504508972168,-0.7224825024604797,-3.101958751678467,1.7540093660354614,-9.022598266601562
-107.40846252441406,-18.79789161682129,-61.7636604309082,-5.165543556213379,-13.439067840576172,-1.5584973096847534,-2.404827833175659,1.5481840372085571,-7.466865539550781
-107.80575561523438,-20.659482955932617,-62.08535385131836,-6.07960319519043,-13.181715965270996,-0.7718446850776672,-1.56725013256073,1.6711618900299072,-4.504948139190674
-107.18140411376953,-20.496986389160156,-64.12932586669922,-6.865278720855713,-13.098139762878418,-0.6928247809410095,-0.8866887092590332,3.0045764446258545,-1.7288893461227417
-105.91606903076172,-18.984573364257812,-67.82635498046875,-6.984986305236816,-12.851696968078613,-1.4699945449829102,-0.46212077140808105,3.774341344833374,1.409522294998169
-104.70171356201172,-15.384635925292969,-71.8768539428711,-6.249173164367676,-13.53248405456543,-1.9996792078018188,-0.19894802570343018,4.132129669189453,4.646218776702881
-103.70140075683594,-10.293900489807129,-76.39149475097656,-4.991133689880371,-15.2300386428833,-2.6724047660827637,-0.03794969618320465,4.945098400115967,7.209447860717773
-103.02644348144531,-4.60898494720459,-81.33385467529297,-4.074709892272949,-15.23416805267334,-3.608466625213623,0.02120780758559704,5.241936683654785,9.01036262512207
-103.05496978759766,1.7926605939865112,-85.30127716064453,-3.2095155715942383,-15.029016494750977,-3.950981378555298,-0.16425834596157074,3.9325079917907715,10.594805717468262
-104.07364654541016,8.527081489562988,-87.92398071289062,-2.3447461128234863,-14.763484954833984,-3.876553535461426,-0.7953603863716125,2.9110634326934814,10.892768859863281
-106.22260284423828,14.111608505249023,-91.26728057861328,-1.3058757781982422,-12.828898429870605,-3.725499391555786,-1.7544832229614258,3.8335516452789307,10.61489486694336
-109.35706329345703,18.912445068359375,-95.51715087890625,-1.033898115158081,-12.029035568237305,-4.7576375007629395,-2.6423141956329346,3.085819721221924,10.391336441040039
-112.5508804321289,24.00753402709961,-98.31097412109375,-0.17143937945365906,-11.755390167236328,-4.096144676208496,-2.7896230220794678,1.5737249851226807,10.17845630645752
-115.61592102050781,28.42841339111328,-100.78730010986328,0.040644291788339615,-10.881810188293457,-4.048332691192627,-3.0183205604553223,1.8129189014434814,8.879254341125488
-119.10254669189453,30.97296142578125,-103.6490249633789,-0.14878542721271515,-9.792243957519531,-3.944532871246338,-3.4855217933654785,1.4479531049728394,7.176881790161133
-122.60037994384766,32.1348876953125,-105.7945785522461,0.6332414746284485,-8.002936363220215,-3.5282089710235596,-3.7011795043945312,1.8752762079238892,5.0736918449401855
-125.48819732666016,32.41496658325195,-107.75728607177734,0.07556746900081635,-6.826305389404297,-4.177753448486328,-3.122227668762207,1.5352803468704224,4.067232131958008
-127.15171813964844,33.32197189331055,-108.13702392578125,-0.09871984273195267,-7.125571250915527,-3.7626311779022217,-3.1198532581329346,-0.16650958359241486,2.594550132751465
-127.65376281738281,33.9719123840332,-106.53204345703125,-0.1959882378578186,-5.606631755828857,-3.4849624633789062,-2.344895601272583,-0.9257379770278931,1.0347915887832642
-127.7107162475586,33.66717529296875,-105.05626678466797,-0.880632758140564,-5.54112434387207,-3.1151435375213623,-2.2664506435394287,-0.6653388738632202,-0.13636183738708496
-127.84777069091797,32.62612533569336,-103.61182403564453,-1.3044124841690063,-5.432724475860596,-2.9309043884277344,-1.6741254329681396,-0.860266387462616,-1.5806314945220947
-127.24758911132812,31.229265213012695,-101.3759765625,-2.2724101543426514,-6.035436153411865,-3.018871784210205,-1.5865631103515625,-1.0089941024780273,-2.5001113414764404
-126.89576721191406,29.810916900634766,-99.15281677246094,-2.5692696571350098,-5.212621212005615,-2.6353259086608887,-1.4313172101974487,-1.0532264709472656,-3.0718748569488525
-126.57880401611328,28.33584976196289,-97.24642181396484,-2.9077558517456055,-6.136795997619629,-2.561678647994995,-1.2101504802703857,-0.7663262486457825,-3.2336223125457764
-126.22515869140625,26.976280212402344,-95.65081787109375,-3.7844724655151367,-6.735995292663574,-2.7895219326019287,-0.8768766522407532,-0.8754837512969971,-3.22072434425354
-125.51651763916016,25.627065658569336,-94.25308227539062,-3.7769815921783447,-7.177091598510742,-2.675697088241577,-0.18734516203403473,-0.2980521619319916,-3.2011537551879883
-124.48530578613281,23.89658546447754,-93.49571990966797,-4.291128158569336,-7.825256824493408,-3.2563023567199707,0.5894283056259155,0.13586188852787018,-3.183722972869873
-123.24002838134766,22.271408081054688,-92.87495422363281,-4.43457555770874,-9.69408130645752,-3.342886209487915,0.9934852123260498,0.27844443917274475,-2.9286768436431885
-121.92835998535156,21.084762573242188,-91.89691925048828,-5.231483459472656,-8.713748931884766,-3.8598220348358154,1.2551301717758179,-0.3848204016685486,-2.8558123111724854
-120.66051483154297,20.32179069519043,-90.90655517578125,-5.364958763122559,-6.51853084564209,-3.9460315704345703,1.2941296100616455,-0.03525813668966293,-2.070185899734497
-120.08662414550781,19.85820960998535,-91.31096649169922,-5.319928169250488,-8.0547513961792,-4.091860294342041,1.2095357179641724,0.6189925670623779,-1.1456197500228882
-119.90196228027344,19.711956024169922,-92.12638854980469,-5.429444789886475,-8.683737754821777,-4.40843391418457,0.9018174409866333,0.6237619519233704,-0.46725812554359436
-119.93697357177734,20.136240005493164,-92.53617095947266,-5.506653785705566,-7.764744758605957,-4.610759258270264,0.4856640696525574,0.20907683670520782,0.29329049587249756
-120.38410949707031,21.00493812561035,-93.25236511230469,-5.170322418212891,-7.410706520080566,-4.497267246246338,0.07239948958158493,0.6648020148277283,1.1274962425231934
-121.16107177734375,21.725976943969727,-94.73367309570312,-4.747579097747803,-7.973066806793213,-4.6544389724731445,-0.011325029656291008,0.968129575252533,1.4734735488891602
-121.71495819091797,22.529340744018555,-95.75682067871094,-4.812614440917969,-7.540736198425293,-4.810827732086182,-0.22525183856487274,0.38511407375335693,1.7016551494598389
-122.36976623535156,23.48466682434082,-96.54521942138672,-3.8591575622558594,-8.227788925170898,-4.319217205047607,-0.3795451819896698,0.7762918472290039,1.8492523431777954
-123.03571319580078,24.171754837036133,-97.59660339355469,-3.810314178466797,-7.880593776702881,-4.459650993347168,-0.2898416221141815,0.38054826855659485,1.7553753852844238
-123.44139862060547,24.900789260864258,-98.29924011230469,-3.4979701042175293,-7.012808322906494,-4.301658630371094,-0.28646814823150635,0.6450445055961609,1.7591285705566406
-124.02561950683594,25.42257308959961,-99.33361053466797,-3.364903450012207,-7.826815605163574,-4.171448707580566,-0.2753380239009857,0.6004465818405151,1.648113489151001
-124.45327758789062,25.914934158325195,-99.95635986328125,-3.1452548503875732,-6.60880708694458,-3.975224494934082,-0.2976953387260437,0.3819842040538788,1.3622777462005615
-124.8549575805664,26.302627563476562,-100.49715423583984,-3.0418639183044434,-6.373535633087158,-3.9631645679473877,-0.2709636092185974,0.539887547492981,1.3162702322006226
-125.24303436279297,26.508407592773438,-101.40754699707031,-2.727804183959961,-7.579382419586182,-3.738995313644409,-0.013176459819078445,0.8122088313102722,1.1473259925842285
-125.24092102050781,26.525257110595703,-102.07357025146484,-2.5865254402160645,-7.191651344299316,-3.8189690113067627,0.24498634040355682,0.5766607522964478,0.7820611000061035
-124.88504791259766,26.594911575317383,-102.22294616699219,-2.7047951221466064,-7.258217811584473,-3.9642014503479004,0.46695590019226074,0.37275686860084534,0.5884103775024414
-124.4484634399414,26.539417266845703,-102.36914825439453,-2.516261577606201,-7.035360336303711,-3.73197865486145,0.6417222619056702,0.46038100123405457,0.23481741547584534
-123.96177673339844,26.13001251220703,-102.53788757324219,-2.6440603733062744,-7.292707443237305,-4.026536464691162,0.7883667349815369,0.5467873811721802,-0.09329839795827866
-123.30747985839844,25.52214241027832,-102.53501892089844,-2.8601975440979004,-7.440004348754883,-4.085487365722656,0.9763973951339722,0.5111523270606995,-0.5604400038719177
-122.4660415649414,24.66026496887207,-102.2447509765625,-3.2348625659942627,-7.120034217834473,-4.247710704803467,1.046505093574524,0.48214519023895264,-1.049442172050476
-121.6270523071289,23.621686935424805,-101.7494888305664,-3.713772773742676,-7.129223823547363,-4.346014976501465,1.0213367938995361,0.3385208249092102,-1.468445897102356
-120.81255340576172,22.63315773010254,-101.00847625732422,-4.164340496063232,-7.26680326461792,-4.267693519592285,0.9177276492118835,0.03713034838438034,-1.6768962144851685
-120.19760131835938,21.769981384277344,-100.22323608398438,-4.603862285614014,-7.1063408851623535,-4.034833908081055,0.6341416239738464,-0.013083778321743011,-1.7402105331420898
-119.95077514648438,21.04924964904785,-99.66437530517578,-4.947929382324219,-6.794104099273682,-3.819923162460327,0.3419609069824219,-0.08784208446741104,-1.4834580421447754
-119.91490173339844,20.7219295501709,-99.33953094482422,-5.134047031402588,-7.178665637969971,-3.473048686981201,0.13543593883514404,-0.08503086864948273,-1.0205620527267456
-120.11144256591797,20.69989585876465,-99.05376434326172,-3.527101993560791,-7.83450174331665,-5.884077548980713,-0.32957977056503296,-0.3761158883571625,-0.7352100610733032
-120.73320007324219,21.215736389160156,-95.0814208984375,1.3464232683181763,-11.730670928955078,-27.056455612182617,-3.131317377090454,-5.72258186340332,-2.801692008972168
-124.40938568115234,23.472620010375977,-88.63109588623047,-8.967659950256348,-0.7875543236732483,20.507522583007812,-7.880368232727051,-5.6130146980285645,-0.07825712859630585
-129.95692443847656,26.167402267456055,-87.30809020996094,-5.210549831390381,-19.961036682128906,-10.677419662475586,-6.228048801422119,-4.149097919464111,-0.7123615741729736
-130.2560577392578,24.80385971069336,-86.8318099975586,-2.5901541709899902,-8.255758285522461,0.7602188587188721,-2.4790642261505127,-0.5894125699996948,-1.7216511964797974
-129.75013732910156,22.961238861083984,-87.38240814208984,-0.7761183381080627,-6.5422043800354,-4.499210357666016,-2.3725574016571045,-0.9676289558410645,-1.0154364109039307
-130.3317413330078,23.411531448364258,-87.14393615722656,-0.21768659353256226,-3.628330945968628,-4.953673839569092,-1.3242666721343994,-0.3827972710132599,-0.32831519842147827
-130.47183227539062,23.688282012939453,-87.77234649658203,-1.3260486125946045,-4.698858737945557,-4.592746734619141,-0.8765660524368286,-0.11144433915615082,0.3295193612575531
-131.0143585205078,24.131519317626953,-88.31294250488281,-3.0663323402404785,-6.057504177093506,-3.9358279705047607,-1.034718632698059,-0.10095332562923431,0.49215027689933777
-131.93161010742188,24.518312454223633,-88.52303314208984,-4.049543380737305,-5.486441135406494,-4.622859477996826,-1.3118793964385986,-0.19926489889621735,0.5683193802833557
-132.89324951171875,25.007997512817383,-88.71250915527344,-4.198093891143799,-5.736423492431641,-5.238498210906982,-1.2816927433013916,-0.25219598412513733,0.7621574401855469
-133.50547790527344,25.596527099609375,-88.90255737304688,-4.477067470550537,-5.718679904937744,-5.495260238647461,-0.9763889312744141,-0.41984325647354126,0.765593945980072
-133.7599334716797,25.978717803955078,-88.66912078857422,-4.958338737487793,-5.304573059082031,-5.6969499588012695,-0.9434704184532166,-0.5477575063705444,0.23534514009952545
-134.08792114257812,25.915864944458008,-88.23916625976562,-4.465153217315674,-6.2241411209106445,-5.798778057098389,-0.9462659955024719,-0.2845272421836853,-0.011877764016389847
-134.4368438720703,25.606019973754883,-88.12542724609375,-3.224803924560547,-5.304003715515137,-5.373965740203857,-0.7087966203689575,-0.010336588136851788,-0.2667861580848694
-134.84681701660156,25.381315231323242,-88.27596282958984,-3.3563520908355713,-5.288515090942383,-5.627383708953857,-0.856619656085968,0.17287732660770416,0.141099750995636
-135.720947265625,25.482986450195312,-88.69134521484375,-3.173417568206787,-5.020214557647705,-5.788134574890137,-1.0825674533843994,0.16565577685832977,0.18262341618537903
-136.47000122070312,25.57421875,-89.0837631225586,-2.4181437492370605,-4.975998401641846,-5.95096492767334,-0.8023184537887573,0.3272240459918976,0.518298327922821
-136.73580932617188,25.80818748474121,-89.90193939208984,-2.750760793685913,-5.657259941101074,-5.8430867195129395,-0.14013296365737915,0.43951883912086487,0.8799068927764893
-136.57264709472656,26.15712547302246,-90.76432800292969,-3.0900442600250244,-6.292117595672607,-6.138249397277832,0.2677805423736572,0.3914358615875244,1.0390418767929077
-136.5853271484375,26.536151885986328,-91.47205352783203,-3.263993978500366,-6.643049240112305,-7.321382522583008,0.10497387498617172,0.34117645025253296,1.1007486581802368
-136.95806884765625,26.830509185791016,-91.9921646118164,-3.665828227996826,-6.687468528747559,-7.889200210571289,-0.09337100386619568,0.2326115220785141,0.8881018757820129
-137.33441162109375,27.024137496948242,-92.31363677978516,-4.015183925628662,-6.892245292663574,-7.233801364898682,-0.21722273528575897,0.20159155130386353,0.8174673914909363
-137.7978515625,27.17630386352539,-92.73443603515625,-4.207761764526367,-6.879446029663086,-7.220507621765137,-0.36359500885009766,0.2782500386238098,0.7411977648735046
-138.27572631835938,27.244749069213867,-93.17526245117188,-4.237888813018799,-6.6430559158325195,-7.451143264770508,-0.3506070375442505,0.29343780875205994,0.6736855506896973
-138.68423461914062,27.297245025634766,-93.60221862792969,-4.17048978805542,-6.393459320068359,-7.3230085372924805,-0.39784127473831177,0.3590603172779083,0.6335520148277283
-139.07232666015625,27.307321548461914,-93.91797637939453,-4.211059093475342,-6.607492923736572,-7.286291599273682,-0.3911866545677185,0.24574755132198334,0.42977720499038696
-139.4860382080078,27.311580657958984,-94.02003479003906,-3.805532932281494,-6.659135818481445,-7.322141647338867,-0.6594052314758301,0.21285149455070496,0.34000495076179504
-140.15850830078125,27.275911331176758,-94.09556579589844,-4.067231178283691,-5.992422103881836,-7.879556179046631,-0.8575084805488586,0.15618351101875305,0.1514877825975418
-140.9525604248047,27.244272232055664,-94.21341705322266,-3.738611936569214,-5.831179618835449,-7.420217037200928,-1.1062315702438354,0.2130548059940338,0.30658620595932007
-141.9916229248047,27.2762508392334,-94.6133804321289,-3.935412645339966,-5.572629928588867,-7.4385223388671875,-1.2561440467834473,0.28975579142570496,0.3764692544937134
-143.11647033691406,27.29783058166504,-94.9664077758789,-3.95207142829895,-5.493313312530518,-7.396431922912598,-1.5425314903259277,0.22798705101013184,0.3976151645183563
-144.29576110839844,27.3824405670166,-95.2168197631836,-4.0642900466918945,-5.233675479888916,-7.303642272949219,-1.581798791885376,0.17127718031406403,0.393504798412323
-145.1798095703125,27.464048385620117,-95.37532043457031,-4.453603267669678,-4.970365524291992,-7.294835090637207,-1.3872077465057373,0.08139922469854355,0.2993558943271637
-145.9484100341797,27.517179489135742,-95.47229766845703,-4.372706413269043,-4.990212440490723,-7.580942630767822,-1.4685709476470947,0.09658259898424149,0.2832303047180176
-146.98191833496094,27.465696334838867,-95.67198944091797,-4.734032154083252,-4.533046722412109,-7.738362789154053,-1.5722739696502686,0.22909420728683472,0.23458833992481232
-148.1081085205078,27.344263076782227,-95.96001434326172,-4.671101093292236,-4.860292434692383,-7.59602165222168,-1.6416672468185425,0.28335583209991455,0.31779804825782776
-149.30126953125,27.259490966796875,-96.33357238769531,-4.6805572509765625,-4.382818698883057,-8.206524848937988,-1.7241809368133545,0.3748222887516022,0.3433975279331207
-150.4508819580078,27.07877540588379,-96.76544952392578,-5.077682971954346,-4.185634136199951,-8.613327026367188,-1.5899940729141235,0.5174137353897095,0.403004914522171
-151.4236602783203,26.985679626464844,-97.18550872802734,-4.594265460968018,-4.10896635055542,-8.809597969055176,-1.5089880228042603,0.31875768303871155,0.43529826402664185
-152.25465393066406,27.15515899658203,-97.43304443359375,-4.570598125457764,-3.731964588165283,-8.576860427856445,-1.3420674800872803,0.11962323635816574,0.4598824977874756
-152.98291015625,27.36747169494629,-97.67391204833984,-4.430180549621582,-3.8925609588623047,-8.46575927734375,-1.2521668672561646,0.04239431023597717,0.4901384711265564
-153.70664978027344,27.511327743530273,-97.9124755859375,-4.212484359741211,-3.7331738471984863,-8.564606666564941,-1.168837070465088,0.018352946266531944,0.4218406081199646
-154.34365844726562,27.595590591430664,-98.01213836669922,-4.613234996795654,-3.5525705814361572,-8.982605934143066,-1.1225014925003052,-0.0437466986477375,0.2790069580078125
-154.85296630859375,27.65253257751465,-97.9994888305664,-4.756463527679443,-3.4733316898345947,-8.937718391418457,-0.9526126980781555,-0.041444018483161926,0.17591504752635956
-155.26280212402344,27.68803596496582,-97.99810028076172,-4.619165420532227,-3.208702802658081,-8.624100685119629,-0.8935226202011108,-0.06350674480199814,0.1334722489118576
-155.69146728515625,27.754728317260742,-98.05577087402344,-4.510595798492432,-3.002164363861084,-8.609957695007324,-0.7671372294425964,-0.05018948018550873,0.17812766134738922
-156.1026153564453,27.841493606567383,-98.15100860595703,-4.20318078994751,-3.210861921310425,-8.013097763061523,-0.7727081179618835,-0.09320104867219925,0.15711694955825806
-156.57620239257812,27.90334129333496,-98.19908905029297,-4.2523698806762695,-3.119109869003296,-7.895299911499023,-0.787706196308136,-0.029539767652750015,0.13826768100261688
-157.12022399902344,27.879459381103516,-98.28277587890625,-4.408604621887207,-3.0239484310150146,-8.38216495513916,-0.8722203969955444,0.021939238533377647,0.12533427774906158
-157.7149658203125,27.80971908569336,-98.35362243652344,-4.578932762145996,-2.758451461791992,-8.955058097839355,-0.9015777707099915,0.09918339550495148,0.07111399620771408
-158.38739013671875,27.676637649536133,-98.49465942382812,-4.3712544441223145,-2.960035800933838,-8.908370018005371,-1.035114049911499,0.2150437831878662,0.1726061850786209
-159.06768798828125,27.535722732543945,-98.69952392578125,-4.611772060394287,-2.7059261798858643,-9.177112579345703,-0.8928700089454651,0.22620025277137756,0.10731501132249832
-159.3958740234375,27.377105712890625,-98.64158630371094,-4.669577121734619,-2.9916138648986816,-8.412529945373535,-0.7664492726325989,0.21096017956733704,-0.1137155145406723
-159.85765075683594,27.176929473876953,-98.5186767578125,-5.106659412384033,-3.662236452102661,-8.532632827758789,-1.0361003875732422,0.26869693398475647,-0.07593965530395508
-160.46246337890625,26.994792938232422,-98.4353256225586,-5.080438613891602,-3.18489670753479,-8.330023765563965,-0.8564871549606323,0.19545045495033264,-0.26344117522239685
-160.73464965820312,26.934925079345703,-98.15319061279297,-4.230948448181152,-3.3034703731536865,-7.780489444732666,-0.8837776780128479,0.018942609429359436,-0.25700053572654724
-161.25628662109375,26.894493103027344,-97.91168975830078,-3.975233793258667,-1.7778241634368896,-8.693068504333496,-1.0800747871398926,0.11835090070962906,-0.3777713477611542
-162.15415954589844,26.5618896484375,-97.81562042236328,-4.10966682434082,-2.684187173843384,-9.79185676574707,-1.450493574142456,0.40022674202919006,-0.2019953727722168
-163.30447387695312,26.232894897460938,-98.01068878173828,-4.073049068450928,-2.75067400932312,-8.883347511291504,-1.4878027439117432,0.3599379062652588,-0.05700942501425743
-164.123291015625,26.122636795043945,-98.08989715576172,-4.4921722412109375,-2.6244959831237793,-9.246208190917969,-1.3342113494873047,0.26031652092933655,-0.07521158456802368
-164.78358459472656,26.054336547851562,-98.07133483886719,-5.029567718505859,-2.9201102256774902,-10.286182403564453,-1.324796438217163,0.20227639377117157,-0.036742810159921646
-165.53309631347656,25.946720123291016,-98.12263488769531,-5.249373912811279,-3.186760902404785,-10.719864845275879,-1.2825173139572144,0.2575751543045044,-0.00415074871852994
-166.12242126464844,25.780332565307617,-98.16400146484375,-5.294631481170654,-3.405954360961914,-10.895245552062988,-1.043851375579834,0.23944061994552612,-0.039125796407461166
-166.421142578125,25.657869338989258,-98.0689468383789,-5.615584373474121,-3.2086775302886963,-11.524731636047363,-0.8373998999595642,0.18581676483154297,-0.15838496387004852
-166.58094787597656,25.50851058959961,-97.79454040527344,-5.579874038696289,-3.0530879497528076,-12.227383613586426,-0.6982420086860657,0.20028239488601685,-0.35798197984695435
-166.8251495361328,25.230831146240234,-97.55580139160156,-5.643957138061523,-2.892843723297119,-12.972502708435059,-0.7502292990684509,0.3635632395744324,-0.2755695879459381
-167.2772216796875,24.832122802734375,-97.53128814697266,-5.539405822753906,-2.693769693374634,-13.534064292907715,-0.7591492533683777,0.5042861104011536,-0.2745564579963684
-167.66551208496094,24.356277465820312,-97.4989242553711,-5.136212348937988,-2.3806354999542236,-13.765786170959473,-0.6971864700317383,0.6551640629768372,-0.2298777997493744
-168.01019287109375,23.81766700744629,-97.52912139892578,-5.061160087585449,-2.736811399459839,-13.736927032470703,-0.646091878414154,0.7742209434509277,-0.19522503018379211
-168.33314514160156,23.235733032226562,-97.54206085205078,-5.009602069854736,-2.4544713497161865,-13.9940824508667,-0.6103740334510803,0.8745824098587036,-0.2220500260591507
-168.6341094970703,22.62844467163086,-97.53614044189453,-4.834133148193359,-2.3422048091888428,-14.12179183959961,-0.5707221031188965,0.9304076433181763,-0.1933714896440506
-168.92593383789062,22.04219627380371,-97.56552124023438,-4.873442649841309,-2.3554208278656006,-14.220931053161621,-0.5346899628639221,0.9510891437530518,-0.18103660643100739
-169.17141723632812,21.475160598754883,-97.56735229492188,-4.670156478881836,-2.1244571208953857,-13.94386100769043,-0.469304621219635,0.9447714686393738,-0.1980280727148056
-169.32093811035156,20.940404891967773,-97.54849243164062,-4.398636341094971,-1.998379111289978,-13.51187515258789,-0.3447379469871521,0.9100494980812073,-0.18829965591430664
-169.4139862060547,20.415552139282227,-97.55390930175781,-3.97798490524292,-1.731040358543396,-13.034358978271484,-0.29017704725265503,0.9285749197006226,-0.17361079156398773
-169.54994201660156,19.80860137939453,-97.61021423339844,-3.5512290000915527,-1.4028023481369019,-12.338196754455566,-0.26415494084358215,1.0316097736358643,-0.12053794413805008
-169.73867797851562,19.087039947509766,-97.75814819335938,-3.42488169670105,-1.5358799695968628,-11.985576629638672,-0.27404290437698364,1.1712955236434937,-0.04317152872681618
-170.01914978027344,18.238496780395508,-97.97433471679688,-3.615478754043579,-1.611480474472046,-11.470983505249023,-0.3625781834125519,1.3727507591247559,0.011559114791452885
-170.3964385986328,17.258174896240234,-98.20822143554688,-3.9815258979797363,-1.8036580085754395,-11.06689739227295,-0.4499737024307251,1.5421724319458008,0.034785833209753036
-170.8045196533203,16.222320556640625,-98.42658233642578,-3.997525215148926,-1.923954725265503,-10.815789222717285,-0.5200865268707275,1.6657065153121948,0.040166035294532776
-171.2008819580078,15.149955749511719,-98.60989379882812,-3.620084285736084,-1.724696159362793,-10.436013221740723,-0.5401498675346375,1.7660014629364014,0.0066473158076405525
-171.56246948242188,14.0828857421875,-98.7763900756836,-3.2628231048583984,-1.3124122619628906,-9.858607292175293,-0.5438514351844788,1.776305913925171,0.03214804455637932
-171.88963317871094,13.110589981079102,-99.01114654541016,-2.6609537601470947,-1.5288704633712769,-9.25737190246582,-0.47474202513694763,1.7207926511764526,0.12559625506401062
-172.15646362304688,12.2058687210083,-99.23180389404297,-2.7284514904022217,-0.8706344366073608,-9.370393753051758,-0.4517359137535095,1.6671017408370972,0.05951021611690521
-172.28294372558594,11.324111938476562,-99.29133605957031,-2.6218743324279785,-1.0080457925796509,-9.365362167358398,-0.22919203341007233,1.5868737697601318,-0.04057890176773071
-172.25547790527344,10.45042610168457,-99.30548858642578,-2.5000100135803223,-0.7125269174575806,-9.224273681640625,-0.17681904137134552,1.5899021625518799,-0.0834682509303093
-172.21743774414062,9.543741226196289,-99.36837005615234,-2.007964849472046,-1.1843814849853516,-9.214668273925781,0.028207629919052124,1.5758845806121826,-0.061558451503515244
-172.1128692626953,8.658892631530762,-99.46907806396484,-1.7726784944534302,-0.9376171231269836,-8.75231647491455,0.002126975916326046,1.5639179944992065,-0.06534150242805481
-172.1597137451172,7.766947269439697,-99.52513122558594,-1.8539626598358154,-0.4603702425956726,-8.334920883178711,-0.04503065347671509,1.5647743940353394,-0.10678990930318832
-172.2404022216797,6.897154331207275,-99.5877914428711,-1.2675014734268188,-0.7286110520362854,-7.97806453704834,-0.08413685858249664,1.515536904335022,-0.05223279446363449
-172.3108673095703,6.1104817390441895,-99.70819854736328,-0.995768129825592,-0.7527086138725281,-7.535975456237793,-0.06136723980307579,1.435782551765442,-0.027044717222452164
-172.33567810058594,5.373259544372559,-99.83487701416016,-0.6967840194702148,-0.5999813675880432,-6.979888916015625,-0.04606619477272034,1.3822089433670044,0.02382807806134224
-172.40374755859375,4.652690887451172,-99.92964935302734,-0.7704254984855652,-0.44117075204849243,-6.816281318664551,-0.12077256292104721,1.32002592086792,-0.05056224763393402
-172.55946350097656,3.9786107540130615,-99.96466827392578,-0.5499956011772156,-0.5921581983566284,-6.354836940765381,-0.19681209325790405,1.2344037294387817,-0.01378515176475048
-172.7089080810547,3.3828773498535156,-100.02310943603516,-0.4559785723686218,-0.46138930320739746,-6.234774589538574,-0.17957374453544617,1.1282033920288086,-0.06275919824838638
-172.72764587402344,2.8511104583740234,-100.03106689453125,-0.3144211173057556,-0.4241252839565277,-6.0365166664123535,-0.05241880193352699,1.0264954566955566,-0.051982562988996506
-172.56509399414062,2.3497443199157715,-100.04014587402344,-0.4716963469982147,-0.4130421280860901,-5.659005641937256,0.15559278428554535,0.9695160388946533,-0.10656385123729706
-172.26084899902344,1.8495172262191772,-100.0677261352539,-0.3066888153553009,-0.5483004450798035,-4.875368118286133,0.3220581114292145,0.9269031286239624,-0.013788473792374134
-171.90367126464844,1.3905413150787354,-100.16763305664062,-0.11894150823354721,-0.4742806851863861,-4.569846153259277,0.4620612859725952,0.8576376438140869,-0.03051658160984516
-171.5465545654297,0.9973818063735962,-100.20980834960938,0.14951258897781372,-0.4131866693496704,-4.241710186004639,0.4831208884716034,0.7572401762008667,-0.009327785111963749
-171.2718505859375,0.699787437915802,-100.2818374633789,0.08060476928949356,-0.5128921270370483,-3.8266003131866455,0.4593159854412079,0.6306749582290649,0.0273725762963295
-171.0227813720703,0.5194203853607178,-100.35108947753906,-0.018468260765075684,-0.6895462870597839,-3.4080724716186523,0.4591131806373596,0.45391646027565,0.036737196147441864
-170.69920349121094,0.4750724136829376,-100.35527038574219,0.03456150367856026,-0.79279625415802,-3.179165840148926,0.563891589641571,0.25225934386253357,-0.01293683610856533
-170.308349609375,0.5301741361618042,-100.31365203857422,0.022592226043343544,-0.8994580507278442,-2.4766900539398193,0.575114369392395,0.09333748370409012,-0.00541509035974741
-169.962158203125,0.6671743392944336,-100.27621459960938,-0.07473819702863693,-1.0443100929260254,-1.9238508939743042,0.5906531810760498,-0.08998265117406845,-0.029220102354884148
-169.5814971923828,0.9241009950637817,-100.19415283203125,-0.1766139715909958,-1.2936476469039917,-1.5535378456115723,0.6448239088058472,-0.28519055247306824,-0.036321647465229034
-169.19837951660156,1.2753549814224243,-100.09719848632812,-0.09848496317863464,-1.1971511840820312,-1.4684950113296509,0.6086340546607971,-0.44044098258018494,-0.044945359230041504
-168.9534454345703,1.661749005317688,-99.98892974853516,0.01365079078823328,-1.0340932607650757,-1.4877245426177979,0.4558117091655731,-0.544553279876709,-0.04772553965449333
-168.88294982910156,2.068403959274292,-99.87808990478516,0.09092193841934204,-1.3804152011871338,-1.33784818649292,0.26621201634407043,-0.6315275430679321,-0.05027642846107483
-168.91322326660156,2.5132131576538086,-99.76812744140625,-0.20568671822547913,-1.1926686763763428,-1.366579294204712,0.1251724511384964,-0.7138781547546387,-0.03650755062699318
-168.99404907226562,3.01424503326416,-99.67394256591797,-0.3143630921840668,-1.4596126079559326,-1.4621052742004395,-0.012519991025328636,-0.8097317218780518,-0.007954261265695095
-169.17904663085938,3.541896104812622,-99.58861541748047,-0.7913973927497864,-1.5716078281402588,-1.666471004486084,-0.19921503961086273,-0.8391861915588379,-0.0027462930884212255
-169.48658752441406,4.086084842681885,-99.48360443115234,-1.1683317422866821,-1.5831940174102783,-2.4045639038085938,-0.3681071698665619,-0.9403581619262695,-0.014664294198155403
-169.8702850341797,4.734313011169434,-99.32247924804688,-1.3371505737304688,-1.499238133430481,-2.8218212127685547,-0.528843879699707,-1.0646172761917114,-0.0688687264919281
-170.26983642578125,5.458091735839844,-99.09742736816406,-1.9994971752166748,-1.31478750705719,-3.3408656120300293,-0.5777416229248047,-1.1898350715637207,-0.12212187796831131
-170.61318969726562,6.279299259185791,-98.82887268066406,-2.516610860824585,-1.5583162307739258,-4.021912574768066,-0.6052942276000977,-1.3677176237106323,-0.17900562286376953
-170.92918395996094,7.260600566864014,-98.53872680664062,-3.251668930053711,-1.5762076377868652,-4.7939887046813965,-0.5916686654090881,-1.5947449207305908,-0.1773267388343811
-171.16830444335938,8.405000686645508,-98.23543548583984,-3.4680142402648926,-1.3180890083312988,-6.148613929748535,-0.5144543647766113,-1.8278363943099976,-0.225749671459198
-171.410400390625,9.612313270568848,-97.95425415039062,-3.5314342975616455,-0.8945435285568237,-7.106520175933838,-0.5879091024398804,-1.923753261566162,-0.13362209498882294
-171.78265380859375,10.719339370727539,-97.78914642333984,-3.516125202178955,-0.8622189164161682,-8.062178611755371,-0.6435591578483582,-1.8538398742675781,-0.11929167062044144
-172.15762329101562,11.670809745788574,-97.62936401367188,-3.8107078075408936,-1.299778699874878,-8.299915313720703,-0.66656893491745,-1.7491729259490967,-0.0845794826745987
-172.50880432128906,12.528583526611328,-97.49789428710938,-4.385648250579834,-1.543496012687683,-8.639748573303223,-0.6526833176612854,-1.613372802734375,-0.08742325752973557
-172.80104064941406,13.305073738098145,-97.31881713867188,-4.602865219116211,-1.507155179977417,-9.439074516296387,-0.6081000566482544,-1.5131583213806152,-0.1570264846086502
-173.0414581298828,14.024847030639648,-97.06613159179688,-4.696434020996094,-1.2888011932373047,-10.3638277053833,-0.5801004767417908,-1.3929312229156494,-0.2258043736219406
-173.3178253173828,14.670001983642578,-96.79820251464844,-4.645142078399658,-1.1206921339035034,-11.203404426574707,-0.6367591023445129,-1.2833123207092285,-0.2671295404434204
-173.6360321044922,15.29903507232666,-96.55123138427734,-4.286027908325195,-0.46609193086624146,-12.593611717224121,-0.6206292510032654,-1.2367384433746338,-0.2655356824398041
-173.8701171875,15.947245597839355,-96.35607147216797,-3.7963428497314453,-0.09367220103740692,-13.987344741821289,-0.5261940360069275,-1.194653868675232,-0.2135418951511383
-174.04714965820312,16.595279693603516,-96.23329162597656,-3.6065120697021484,-0.3961035907268524,-14.336016654968262,-0.47216328978538513,-1.1755175590515137,-0.13846923410892487
-174.20736694335938,17.296241760253906,-96.09003448486328,-3.8370907306671143,-0.5575979351997375,-14.393197059631348,-0.4137926697731018,-1.2471388578414917,-0.18418680131435394
-174.27066040039062,18.075382232666016,-95.83592224121094,-3.6329660415649414,-0.5186076760292053,-14.713001251220703,-0.306850790977478,-1.3114722967147827,-0.2306937277317047
-174.26992797851562,18.845426559448242,-95.5750732421875,-3.2935433387756348,-0.16452354192733765,-15.354469299316406,-0.25325536727905273,-1.3047678470611572,-0.24232228100299835
-174.3728485107422,19.507740020751953,-95.38040924072266,-3.05944561958313,-0.14753732085227966,-15.479387283325195,-0.34706705808639526,-1.177653193473816,-0.18516415357589722
-174.5903778076172,20.02214813232422,-95.28016662597656,-3.092784881591797,0.05658793821930885,-16.206174850463867,-0.3486948609352112,-1.0259681940078735,-0.1333068460226059
-174.78070068359375,20.43341636657715,-95.20735168457031,-3.3817713260650635,-0.1917928159236908,-16.927030563354492,-0.37755444645881653,-0.8686076402664185,-0.10170715302228928
-174.93948364257812,20.773929595947266,-95.14813232421875,-4.000012397766113,-0.4589618742465973,-17.427692413330078,-0.2872668504714966,-0.7507492303848267,-0.07425790280103683
-174.97825622558594,21.070993423461914,-95.08747100830078,-4.1973137855529785,-0.4621207118034363,-18.006359100341797,-0.19834454357624054,-0.6373692750930786,-0.07848792523145676
-174.9728240966797,21.30255699157715,-95.0140380859375,-4.4445600509643555,-0.37689918279647827,-18.438127517700195,-0.12773029506206512,-0.5222482681274414,-0.0780654102563858
-174.93319702148438,21.477787017822266,-94.95091247558594,-4.462912559509277,-0.24898235499858856,-18.844532012939453,-0.04338736832141876,-0.42574813961982727,-0.07489179074764252
-174.86814880371094,21.572847366333008,-94.9157943725586,-4.4481282234191895,-0.08603373169898987,-19.7613468170166,0.005280413664877415,-0.2650894522666931,-0.044474389404058456
-174.827880859375,21.513639450073242,-94.9351806640625,-4.396265506744385,0.015919853001832962,-20.6370906829834,0.03308188542723656,-0.05454794317483902,-0.007822365500032902
-174.79640197753906,21.302335739135742,-94.97261047363281,-4.564627647399902,0.012212846428155899,-20.896270751953125,0.050755031406879425,0.1610441356897354,-0.008971990086138248
-174.71697998046875,20.988676071166992,-95.01598358154297,-4.815047264099121,-0.10521935671567917,-20.573354721069336,0.14849407970905304,0.33331698179244995,0.02158415876328945
-174.5032958984375,20.656705856323242,-95.08377838134766,-4.993824481964111,-0.22117826342582703,-20.002073287963867,0.31785351037979126,0.41086477041244507,0.024104708805680275
-174.15003967285156,20.35079574584961,-95.1272964477539,-5.175783157348633,-0.4725022614002228,-19.505496978759766,0.47416824102401733,0.4556979238986969,0.012186003848910332
-173.71070861816406,20.05968475341797,-95.12047576904297,-5.407690525054932,-0.6095793843269348,-18.959157943725586,0.6059377193450928,0.4531356394290924,-0.05920581892132759
-173.1478271484375,19.807430267333984,-95.01907348632812,-5.4080705642700195,-0.668099045753479,-18.497743606567383,0.7876696586608887,0.414299339056015,-0.1564273238182068
-172.4111785888672,19.58383560180664,-94.78417205810547,-5.595889091491699,-1.0414983034133911,-17.712888717651367,0.962302565574646,0.3702813386917114,-0.3503611981868744
-171.59848022460938,19.381641387939453,-94.50553131103516,-5.550504207611084,-1.2939625978469849,-16.300155639648438,1.0742242336273193,0.32273218035697937,-0.3343273401260376
-170.8722686767578,19.180702209472656,-94.45330047607422,-4.922473430633545,-1.104432463645935,-14.767247200012207,1.1180535554885864,0.36954593658447266,-0.1842077374458313
-170.29779052734375,18.815519332885742,-94.62181854248047,-4.079427719116211,-0.16554783284664154,-13.834209442138672,1.0468757152557373,0.6123165488243103,-0.013505376875400543
-169.79953002929688,18.153703689575195,-94.78414916992188,-2.9367170333862305,-1.2773135900497437,-12.918129920959473,1.0242054462432861,0.9253251552581787,-0.1363895982503891
-169.47926330566406,17.141849517822266,-94.95689392089844,-3.6530003547668457,0.45570749044418335,-11.640046119689941,0.6622658967971802,1.4647825956344604,0.056175559759140015
-169.69015502929688,15.828733444213867,-95.41624450683594,-3.2667856216430664,-1.6153428554534912,-10.2770414352417,0.21990422904491425,1.8378260135650635,0.1297423541545868
-170.0926055908203,14.452192306518555,-95.8359375,-3.7961835861206055,-2.5277175903320312,-9.329429626464844,-0.07144083082675934,2.1031596660614014,0.1877966821193695
-170.50344848632812,13.097640037536621,-96.30419158935547,-4.0048508644104,-2.2539052963256836,-8.598678588867188,-0.23360063135623932,2.1872498989105225,0.3088565468788147
-170.84033203125,11.858956336975098,-96.71582794189453,-4.494320392608643,-2.5137829780578613,-7.874814987182617,-0.267159640789032,2.15502667427063,0.20840337872505188
-171.01795959472656,10.771387100219727,-96.91398620605469,-4.574982643127441,-2.8617899417877197,-7.7148661613464355,-0.21327704191207886,1.9544366598129272,0.12438628822565079
-171.14395141601562,9.874861717224121,-97.05319213867188,-3.828401565551758,-2.851444721221924,-7.08438777923584,-0.2332972139120102,1.7805426120758057,0.06816553324460983
-171.3736572265625,8.996590614318848,-97.1583023071289,-3.104243040084839,-2.821389675140381,-6.415891647338867,-0.35205042362213135,1.7164132595062256,0.006162268575280905
-171.63111877441406,8.100733757019043,-97.21162414550781,-2.8371498584747314,-2.035534143447876,-6.246119499206543,-0.31994983553886414,1.6244969367980957,-0.07439935952425003
-171.7537384033203,7.249989986419678,-97.2035140991211,-2.3398494720458984,-1.9491368532180786,-5.969240665435791,-0.2521646022796631,1.5605119466781616,-0.14763183891773224
-171.78810119628906,6.412219047546387,-97.21929931640625,-2.0185720920562744,-2.0892701148986816,-5.391765594482422,-0.1286269873380661,1.5174739360809326,-0.10797189921140671
-171.6521759033203,5.614049911499023,-97.29389190673828,-1.8357939720153809,-1.5972654819488525,-5.2034125328063965,0.12620706856250763,1.4438639879226685,-0.11085331439971924
-171.318115234375,4.824439525604248,-97.34783935546875,-1.3902965784072876,-1.158491849899292,-5.285604476928711,0.3335650861263275,1.4537806510925293,-0.11442895978689194
-171.00094604492188,3.983417272567749,-97.50836944580078,-0.6359550952911377,-1.6249812841415405,-4.304593563079834,0.36460915207862854,1.4877879619598389,0.05211341381072998
-170.89393615722656,3.1507749557495117,-97.80997467041016,-0.7224481701850891,-1.202892780303955,-3.470350503921509,0.18975168466567993,1.4873231649398804,0.12636899948120117
-170.94281005859375,2.4207301139831543,-98.05078887939453,-0.457289457321167,-1.7128238677978516,-2.82917857170105,0.10795916616916656,1.3286025524139404,0.14550961554050446
-170.9431915283203,1.8727341890335083,-98.2508544921875,-0.30406835675239563,-1.8074240684509277,-2.798933744430542,0.09054668247699738,1.1624184846878052,0.17875909805297852
-170.96835327148438,1.3707640171051025,-98.44530487060547,-0.6341601014137268,-1.3506501913070679,-2.734083414077759,-0.020807340741157532,1.0891860723495483,0.1666601151227951
-171.10693359375,0.8644688129425049,-98.58382415771484,-0.5907219052314758,-1.5755289793014526,-2.816652297973633,-0.13149288296699524,0.9881148934364319,0.11804097890853882
-171.29843139648438,0.4160856008529663,-98.67156982421875,-0.5421015620231628,-1.5110816955566406,-2.614691734313965,-0.22866441309452057,0.9023426175117493,0.0852191299200058
-171.42640686035156,0.02944793738424778,-98.69197845458984,-0.41826266050338745,-1.0524888038635254,-3.1527132987976074,-0.13314518332481384,0.762950599193573,-0.029182881116867065
-171.50059509277344,-0.2608632743358612,-98.68690490722656,-0.04614725336432457,-0.5992645621299744,-2.7865853309631348,-0.23347149789333344,0.6437770128250122,0.03167452663183212
-171.63380432128906,-0.4860297441482544,-98.76958465576172,0.10928814113140106,-0.6438215374946594,-2.852311611175537,-0.13906565308570862,0.5341073870658875,0.027920901775360107
-171.60357666015625,-0.6664689779281616,-98.77403259277344,0.3465469479560852,-0.735466480255127,-2.594010353088379,-0.04853386804461479,0.4270831048488617,-0.03307986259460449
-171.5483856201172,-0.7936088442802429,-98.77713012695312,0.40485668182373047,-0.28195494413375854,-2.3793675899505615,-0.0016439715400338173,0.331675261259079,0.035307012498378754
-171.46502685546875,-0.7989001870155334,-98.82881927490234,0.6332360506057739,-0.3701345920562744,-2.0595147609710693,0.09103325754404068,0.12198707461357117,0.021361377090215683
-171.2814178466797,-0.6297799944877625,-98.79013061523438,0.5439652800559998,-0.3318178355693817,-2.1263251304626465,0.22200129926204681,-0.08844661712646484,-0.006799774710088968
-171.0138397216797,-0.3323819637298584,-98.68226623535156,0.5574538111686707,-0.5298072695732117,-2.0416853427886963,0.33101487159729004,-0.3279491066932678,-0.07645904272794724
-170.7263946533203,0.08770649135112762,-98.52758026123047,0.6561754941940308,-0.48949480056762695,-1.9106181859970093,0.3868185877799988,-0.5238832831382751,-0.07920278608798981
-170.48785400390625,0.5512474179267883,-98.4163589477539,0.8547539710998535,-0.5887887477874756,-1.7894843816757202,0.3526409864425659,-0.6313870549201965,-0.055688370019197464
-170.37034606933594,1.0100592374801636,-98.34508514404297,0.8594057559967041,-0.7628024220466614,-1.4847220182418823,0.23057791590690613,-0.7007660269737244,-0.012075556442141533
-170.41259765625,1.4827157258987427,-98.32694244384766,0.757561445236206,-0.8925047516822815,-1.301687479019165,0.040232665836811066,-0.7480000257492065,0.061536166816949844
-170.6313934326172,2.0006585121154785,-98.32138061523438,0.40083760023117065,-1.1343356370925903,-1.3129565715789795,-0.19990010559558868,-0.8451648950576782,0.06348530203104019
-170.9646453857422,2.609391450881958,-98.2542724609375,0.18254320323467255,-1.2527501583099365,-1.775292158126831,-0.3535889983177185,-0.9702790379524231,0.04627818986773491
-171.36387634277344,3.297797918319702,-98.1843490600586,-0.426009863615036,-1.1058967113494873,-2.187302350997925,-0.5566542744636536,-1.0807390213012695,0.07831669598817825
-171.86749267578125,4.057292461395264,-98.15592956542969,-0.807856559753418,-1.4685437679290771,-2.8853838443756104,-0.6881027817726135,-1.208558440208435,0.10153713822364807
-172.44461059570312,4.893469333648682,-98.11251068115234,-1.2605490684509277,-1.5141971111297607,-3.7161834239959717,-0.8914380669593811,-1.3289449214935303,0.08725710958242416
-173.11045837402344,5.827816009521484,-98.07637786865234,-1.7422069311141968,-1.5122497081756592,-4.017338275909424,-0.9743345975875854,-1.5065897703170776,0.13781099021434784
-173.73638916015625,6.883553504943848,-98.04401397705078,-2.407844305038452,-1.2816274166107178,-4.722443580627441,-1.0282254219055176,-1.6587587594985962,0.08645698428153992
-174.416748046875,7.993539333343506,-97.99653625488281,-2.704200267791748,-1.578037977218628,-5.350402355194092,-1.1554670333862305,-1.7846901416778564,0.14227692782878876
-175.20346069335938,9.103672981262207,-98.0206069946289,-3.1170434951782227,-1.1687895059585571,-6.285737991333008,-1.2565252780914307,-1.7985540628433228,0.1237311065196991
-176.0143585205078,10.18143081665039,-98.05386352539062,-3.564293622970581,-1.487075686454773,-6.761758804321289,-1.3210169076919556,-1.85660719871521,0.17503342032432556
-176.7540740966797,11.286355018615723,-98.08426666259766,-4.267030715942383,-1.2579660415649414,-7.715777397155762,-1.2386807203292847,-1.8597979545593262,0.07044690102338791
-177.22825622558594,12.388137817382812,-97.97296905517578,-4.520216941833496,-1.3156286478042603,-8.732604026794434,-0.9682043790817261,-1.925645112991333,-0.03589460626244545
-177.4495086669922,13.498908996582031,-97.84457397460938,-4.484091758728027,-1.1241793632507324,-9.493422508239746,-0.7268660068511963,-1.8779243230819702,-0.06666631996631622
-177.65277099609375,14.5291166305542,-97.75236511230469,-4.686408996582031,-0.7632673382759094,-10.275355339050293,-0.6587454080581665,-1.845223307609558,-0.09379277378320694
-177.96034240722656,15.550155639648438,-97.67431640625,-4.697564125061035,-0.6726031303405762,-10.852294921875,-0.6647731065750122,-1.8113895654678345,-0.08538833260536194
-178.32998657226562,16.56232452392578,-97.61119842529297,-4.681036949157715,-0.429337739944458,-11.408912658691406,-0.6936895847320557,-1.7938745021820068,-0.09908420592546463
-178.668212890625,17.58868980407715,-97.50628662109375,-4.799123287200928,-0.19101616740226746,-11.827535629272461,-0.6361324191093445,-1.8030173778533936,-0.14657677710056305
-178.9467315673828,18.649547576904297,-97.36227416992188,-4.596600532531738,0.037971433252096176,-12.400943756103516,-0.635610818862915,-1.8368359804153442,-0.16167829930782318
-179.3282928466797,19.699920654296875,-97.2383804321289,-4.4675469398498535,0.6613404750823975,-13.368119239807129,-0.7495046854019165,-1.791232705116272,-0.16299554705619812
-179.87547302246094,20.589967727661133,-97.149658203125,-4.6685309410095215,0.9503387212753296,-14.800076484680176,-0.9016017913818359,-1.5883831977844238,-0.12655211985111237
179.60610961914062,21.330087661743164,-97.07917785644531,-5.180886268615723,1.1927646398544312,-16.582843780517578,-0.8031814694404602,-1.4823858737945557,-0.1487552374601364
179.35009765625,22.075735092163086,-96.94042205810547,-5.451380729675293,1.1715589761734009,-18.2479190826416,-0.6370365619659424,-1.3957160711288452,-0.19504065811634064
179.35226440429688,22.837308883666992,-96.74008178710938,-5.631111145019531,1.4780017137527466,-20.055755615234375,-0.29773902893066406,-1.403786063194275,-0.27208977937698364
179.6099853515625,23.611671447753906,-96.52176666259766,-5.344706058502197,1.772090196609497,-20.98357391357422,-0.0425647497177124,-1.3337314128875732,-0.2650795876979828
179.9287872314453,24.242551803588867,-96.33379364013672,-5.31223201751709,1.5381696224212646,-21.158021926879883,0.16272932291030884,-1.1638942956924438,-0.29724234342575073
-179.60125732421875,24.72187042236328,-96.13011169433594,-5.391005039215088,1.2246623039245605,-20.6025333404541,0.4629347324371338,-1.002280592918396,-0.2791777551174164
-179.0689239501953,25.080717086791992,-95.98839569091797,-5.340132713317871,1.0206011533737183,-20.260028839111328,0.5186118483543396,-0.787487268447876,-0.22506876289844513
-178.72412109375,25.258974075317383,-95.88668060302734,-5.439802646636963,0.9792194962501526,-20.13721466064453,0.4643307030200958,-0.5263016819953918,-0.20349404215812683
-178.51490783691406,25.22405433654785,-95.79475402832031,-5.61151647567749,0.9148328304290771,-19.93634796142578,0.34566530585289,-0.20162028074264526,-0.16445232927799225
-178.44227600097656,24.968063354492188,-95.77852630615234,-5.842320442199707,0.8179606795310974,-19.89369773864746,0.22844399511814117,0.12234842777252197,-0.07301570475101471
-178.44374084472656,24.540451049804688,-95.83772277832031,-5.962168216705322,0.8292482495307922,-19.96508026123047,0.15331239998340607,0.4242897629737854,-0.014328221790492535
-178.3885498046875,23.983314514160156,-95.90557098388672,-5.924683570861816,0.7547475099563599,-19.871490478515625,0.2156025469303131,0.6718393564224243,0.02546781115233898
-178.1694793701172,23.368412017822266,-95.97381591796875,-5.85465669631958,0.557554304599762,-19.35730743408203,0.36268001794815063,0.8262874484062195,0.036563292145729065
-177.807861328125,22.75293731689453,-96.00606536865234,-5.774230480194092,0.24694423377513885,-18.40865135192871,0.5001643896102905,0.91811603307724,-0.000946600513998419
-177.36553955078125,22.130844116210938,-95.9937973022461,-5.630098342895508,0.00017691636458039284,-17.4111270904541,0.6184939742088318,0.9890204668045044,-0.035534631460905075
-176.88551330566406,21.472837448120117,-95.98285675048828,-5.295517444610596,-0.05522434785962105,-16.624971389770508,0.7024095058441162,1.0713610649108887,-0.05404091998934746
-176.40863037109375,20.76292610168457,-95.99000549316406,-4.958929538726807,-0.11583597213029861,-15.787845611572266,0.741001307964325,1.150465488433838,-0.061526257544755936
-175.97140502929688,19.988183975219727,-96.01692199707031,-4.6345062255859375,-0.1923900991678238,-14.84373664855957,0.7290284633636475,1.267630934715271,-0.05823015794157982
-175.59005737304688,19.120014190673828,-96.08463287353516,-4.462400913238525,-0.3640976846218109,-14.115762710571289,0.7018769979476929,1.3955570459365845,-0.03335435688495636
-175.26795959472656,18.168039321899414,-96.1956558227539,-4.182950019836426,-0.41773056983947754,-13.52082633972168,0.6358937621116638,1.5355089902877808,-0.007416393607854843
-175.0316925048828,17.11422348022461,-96.34394836425781,-4.178925514221191,-0.5888077616691589,-13.040328025817871,0.5420114994049072,1.7059344053268433,0.03154078125953674
-174.87196350097656,15.95529842376709,-96.53919219970703,-4.300412178039551,-0.8670335412025452,-12.601974487304688,0.455218642950058,1.865175485610962,0.07403586804866791
-174.78367614746094,14.718791007995605,-96.77107238769531,-4.263306617736816,-1.042628526687622,-12.257287979125977,0.3357519805431366,2.017909526824951,0.12132047861814499
-174.76971435546875,13.438138008117676,-97.04456329345703,-4.179906368255615,-1.1725866794586182,-11.809849739074707,0.2492823451757431,2.108503580093384,0.18376177549362183
-174.7632293701172,12.19498348236084,-97.36639404296875,-3.9158992767333984,-1.672950029373169,-10.852249145507812,0.2143545150756836,2.1142680644989014,0.262179970741272
-174.79605102539062,11.047806739807129,-97.73530578613281,-3.572066068649292,-1.9522885084152222,-9.647356033325195,0.1021111011505127,2.0412189960479736,0.3493019640445709
-174.66880798339844,10.035577774047852,-97.91722106933594,-3.6020069122314453,-1.820189356803894,-9.368901252746582,0.3888533413410187,1.8574621677398682,0.05254470929503441
-174.26072692871094,9.125252723693848,-97.8824234008789,-3.5520174503326416,-0.5238183736801147,-8.586797714233398,0.3982952833175659,1.7607197761535645,0.06380633264780045
-173.85150146484375,8.22934341430664,-97.86982727050781,-2.699345350265503,-0.9723168015480042,-8.811010360717773,0.6968433260917664,1.6500234603881836,-0.19502829015254974
-173.1966094970703,7.318484783172607,-97.55243682861328,-2.857692241668701,-0.42368704080581665,-8.645528793334961,0.7553494572639465,1.6312336921691895,-0.47757047414779663
-172.66415405273438,6.372373104095459,-97.34381866455078,-2.072408676147461,-1.5362820625305176,-7.414668083190918,0.8129695057868958,1.618237018585205,-0.28263136744499207
-172.31324768066406,5.4636149406433105,-97.48444366455078,-1.720790982246399,-0.933964192867279,-6.07018518447876,0.5819126963615417,1.6170467138290405,-0.1545802354812622
-172.2421112060547,4.539613246917725,-97.65650177001953,-1.536056637763977,-0.907980740070343,-5.118922710418701,0.3802240192890167,1.6412339210510254,-0.03912700340151787
-172.13426208496094,3.650864601135254,-97.8265609741211,-1.420276165008545,-0.9557785391807556,-4.786136627197266,0.4097490906715393,1.5554827451705933,-0.02094586007297039
-171.94432067871094,2.8613579273223877,-97.94998168945312,-1.266872525215149,-0.8158756494522095,-4.364023208618164,0.3095395863056183,1.4836750030517578,0.006778230424970388
-171.90847778320312,2.128408670425415,-98.02767181396484,-1.4510596990585327,-1.3507792949676514,-3.887850761413574,0.16396917402744293,1.3610349893569946,-0.06778962910175323
-171.9620361328125,1.4850870370864868,-97.99908447265625,-1.4737982749938965,-0.9785918593406677,-3.3898823261260986,0.04250900074839592,1.2319607734680176,-0.12609891593456268
-172.00294494628906,0.9065980315208435,-97.95930480957031,-0.8392340540885925,-1.0365509986877441,-3.0071675777435303,0.04082586616277695,1.1240140199661255,-0.1466025561094284
-171.92440795898438,0.38724562525749207,-97.91841125488281,-0.5402237176895142,-0.94452303647995,-2.7970762252807617,0.13094916939735413,1.0004221200942993,-0.17358624935150146
-171.76942443847656,-0.06936145573854446,-97.8785400390625,-0.35470259189605713,-0.5643144845962524,-2.3845503330230713,0.17287328839302063,0.9074108600616455,-0.1530928760766983
-171.62486267089844,-0.4731171727180481,-97.90293884277344,0.10209178924560547,-0.826689600944519,-2.285055160522461,0.2038266509771347,0.8010616302490234,-0.07916749268770218
-171.46749877929688,-0.8100055456161499,-97.96626281738281,-0.09520000219345093,-0.22638386487960815,-2.3567280769348145,0.23683343827724457,0.7086107730865479,-0.04904281347990036
-171.29006958007812,-1.0860676765441895,-98.04586791992188,-0.06950661540031433,-0.8339318633079529,-1.7793785333633423,0.2682107090950012,0.5941168665885925,0.036405645310878754
-171.09848022460938,-1.2880370616912842,-98.11383819580078,-0.43186601996421814,-1.112778663635254,-2.073686122894287,0.29483315348625183,0.4851051867008209,-0.0207938514649868
-171.0235137939453,-1.4751282930374146,-98.11827850341797,-0.25926393270492554,-0.6005302667617798,-2.2246649265289307,0.09652217477560043,0.4377176761627197,0.015691494569182396
-171.00558471679688,-1.5888179540634155,-98.15547180175781,-0.24319954216480255,-0.5238776206970215,-2.7121517658233643,0.22110706567764282,0.25801315903663635,0.000275857892120257
-170.83514404296875,-1.5599360466003418,-98.13966369628906,-0.2109452784061432,-0.39222297072410583,-2.7736458778381348,0.16654376685619354,0.13029149174690247,-0.0029224909376353025
-170.6438446044922,-1.444003701210022,-98.12090301513672,-0.1157575249671936,-0.4295926094055176,-2.990246295928955,0.382342129945755,-0.07257244735956192,0.005209822207689285
-170.23402404785156,-1.2156568765640259,-98.0828628540039,-0.159836083650589,-0.3791041076183319,-3.1033775806427,0.4940890967845917,-0.1966169774532318,-0.006450348999351263
-169.820068359375,-0.9393148422241211,-98.03801727294922,-0.324874609708786,-0.49743643403053284,-2.9597814083099365,0.6054635643959045,-0.35974419116973877,0.019872788339853287
-169.39549255371094,-0.5615435838699341,-98.00074005126953,-0.32747751474380493,-0.7804148197174072,-2.5142977237701416,0.6235626339912415,-0.4928154945373535,0.02940174750983715
-169.0764923095703,-0.14750835299491882,-97.9370346069336,-0.14138922095298767,-0.9599695205688477,-2.1643130779266357,0.5324223637580872,-0.5930983424186707,0.01663476973772049
-168.94271850585938,0.25925737619400024,-97.88221740722656,-0.021508807316422462,-1.0143353939056396,-1.7876012325286865,0.31769636273384094,-0.6101986169815063,0.05411403998732567
-169.00778198242188,0.6255754232406616,-97.89791107177734,-0.19697216153144836,-1.251312017440796,-1.8235739469528198,0.0937107503414154,-0.6011417508125305,0.11110379546880722
-169.24269104003906,0.9700391888618469,-97.97124481201172,-0.42758023738861084,-1.4926921129226685,-1.8279955387115479,-0.19247005879878998,-0.5718441009521484,0.17924173176288605
-169.6535186767578,1.3157933950424194,-98.05381774902344,-0.7410653233528137,-1.6604211330413818,-2.2103402614593506,-0.4368162751197815,-0.5930073261260986,0.17871509492397308
-170.17539978027344,1.7232757806777954,-98.0838851928711,-0.8349670767784119,-1.5085803270339966,-2.65199613571167,-0.673387348651886,-0.6663367748260498,0.1739652305841446
-170.73239135742188,2.2631523609161377,-98.11717224121094,-0.9976190328598022,-1.7649719715118408,-2.929447650909424,-0.7420661449432373,-0.8433701395988464,0.21136648952960968
-171.19007873535156,3.0046703815460205,-98.12413024902344,-1.371248483657837,-1.596921682357788,-3.485198736190796,-0.7388579249382019,-1.0950477123260498,0.17337609827518463
-171.59844970703125,3.92543363571167,-98.02877807617188,-1.6302473545074463,-1.2460609674453735,-4.0245842933654785,-0.7343629598617554,-1.3591029644012451,0.10763495415449142
-172.03500366210938,4.9437947273254395,-97.91270446777344,-1.338358759880066,-1.4301373958587646,-4.0625,-0.7903330326080322,-1.5213779211044312,0.1091625839471817
-172.56053161621094,5.9080400466918945,-97.85382843017578,-1.8562366962432861,-1.330054521560669,-4.361483573913574,-0.8819291591644287,-1.5154472589492798,0.10880839079618454
-173.16571044921875,6.83851432800293,-97.83850860595703,-2.2208921909332275,-1.511160135269165,-4.497727870941162,-0.9806028008460999,-1.6176865100860596,0.14794225990772247
-173.83132934570312,7.949319362640381,-97.83556365966797,-2.039706230163574,-1.7555402517318726,-4.396604537963867,-1.078695297241211,-1.820343255996704,0.14754347503185272
-174.5179901123047,9.23516845703125,-97.798095703125,-2.322645902633667,-1.3373453617095947,-4.676762104034424,-1.1264535188674927,-2.033750057220459,0.12465270608663559
-175.2434844970703,10.632917404174805,-97.75112915039062,-2.2862000465393066,-1.3233028650283813,-5.096327781677246,-1.2501848936080933,-2.220672607421875,0.11808876693248749
-176.1099090576172,12.037270545959473,-97.79724884033203,-2.5847911834716797,-1.009286642074585,-6.112672328948975,-1.3954371213912964,-2.248262405395508,0.2091010957956314
-177.08807373046875,13.313068389892578,-97.9729995727539,-3.2371559143066406,-0.5619670748710632,-7.588619709014893,-1.5243767499923706,-2.170706033706665,0.27220553159713745
-178.1752166748047,14.419979095458984,-98.2238998413086,-4.224185943603516,-0.42907893657684326,-9.079183578491211,-1.6953538656234741,-1.9828779697418213,0.3656703531742096
-179.35400390625,15.412487983703613,-98.47880554199219,-5.193836212158203,-0.2437932938337326,-10.905532836914062,-1.807283639907837,-1.9001394510269165,0.2914254367351532
179.6054229736328,16.45421028137207,-98.57710266113281,-5.88584041595459,0.15300875902175903,-12.48485279083252,-1.6815608739852905,-1.8934974670410156,0.18349243700504303
178.8702392578125,17.580108642578125,-98.58055877685547,-6.0506439208984375,0.4422588348388672,-13.99811840057373,-1.4273031949996948,-1.9632545709609985,0.050413161516189575
178.37908935546875,18.81157112121582,-98.45399475097656,-6.016257286071777,0.8629111647605896,-15.033862113952637,-1.1924829483032227,-2.065699815750122,-0.13486021757125854
178.0001983642578,20.106849670410156,-98.28397369384766,-5.542734622955322,1.3583999872207642,-15.679465293884277,-0.9968401193618774,-2.141594171524048,-0.1489826887845993
177.70245361328125,21.34091567993164,-98.11238098144531,-5.47081995010376,1.8434656858444214,-16.50455665588379,-0.8284143805503845,-2.0556044578552246,-0.32779160141944885
177.40614318847656,22.408214569091797,-97.94432830810547,-5.075098037719727,1.9995781183242798,-16.873510360717773,-0.790934145450592,-1.9285327196121216,-0.1506158411502838
176.92575073242188,23.33436393737793,-98.00267791748047,-5.330578804016113,2.175377607345581,-17.52132225036621,-0.8448122143745422,-1.7334249019622803,-0.14475177228450775
176.46156311035156,24.11015510559082,-97.94598388671875,-5.526157379150391,2.505667209625244,-18.46813201904297,-0.7984001040458679,-1.5319085121154785,-0.16318464279174805
176.1750946044922,24.735382080078125,-97.86984252929688,-5.9860076904296875,2.585881471633911,-19.351062774658203,-0.6045520305633545,-1.2741955518722534,-0.1633644700050354
176.13949584960938,25.194347381591797,-97.8167953491211,-6.5092034339904785,2.1694719791412354,-19.24687385559082,-0.2989932894706726,-1.043703317642212,-0.12663330137729645
176.31163024902344,25.57866668701172,-97.75527954101562,-6.617969989776611,2.03324818611145,-18.698015213012695,-0.056932684034109116,-0.8863545656204224,-0.16680864989757538
176.6066436767578,25.943832397460938,-97.60636901855469,-6.428463935852051,1.6526613235473633,-18.108795166015625,0.15470615029335022,-0.7726404070854187,-0.2250610738992691
176.97596740722656,26.274826049804688,-97.40694427490234,-5.8795952796936035,2.023066759109497,-17.556936264038086,0.27467024326324463,-0.6671021580696106,-0.2795155644416809
177.3273162841797,26.51661491394043,-97.21591186523438,-5.403841495513916,2.059813976287842,-17.07448959350586,0.339773565530777,-0.5065591931343079,-0.26038187742233276
177.6744842529297,26.629261016845703,-97.07640838623047,-5.13001823425293,2.0836715698242188,-16.474931716918945,0.4263550937175751,-0.3428378105163574,-0.24141032993793488
178.0702667236328,26.642873764038086,-96.9717788696289,-5.094929218292236,1.8728599548339844,-15.764713287353516,0.5171558260917664,-0.17767426371574402,-0.17901164293289185
178.4656524658203,26.558353424072266,-96.90625,-4.924086093902588,1.7484185695648193,-14.881256103515625,0.543026864528656,-0.012066230177879333,-0.15642143785953522
178.8540496826172,26.388925552368164,-96.85951232910156,-4.690993309020996,1.460315465927124,-13.804054260253906,0.6110605001449585,0.13427475094795227,-0.08520946651697159
179.26177978515625,26.160051345825195,-96.87751007080078,-4.522399425506592,1.3599352836608887,-12.877602577209473,0.6530865430831909,0.25389859080314636,-0.033495642244815826
179.6376190185547,25.89472770690918,-96.88814544677734,-4.431529521942139,1.1442322731018066,-11.96341323852539,0.6178568601608276,0.3444218933582306,-0.02814052812755108
179.95645141601562,25.59739112854004,-96.9012451171875,-4.490948677062988,0.9256299734115601,-11.029909133911133,0.5973551869392395,0.42978978157043457,0.01960829831659794
-179.72166442871094,25.279964447021484,-96.93614196777344,-4.672957420349121,0.5468550324440002,-10.404480934143066,0.604653537273407,0.46947285532951355,0.008104946464300156
-179.35560607910156,24.99924087524414,-96.91629028320312,-4.6847615242004395,0.36811932921409607,-10.155166625976562,0.612585186958313,0.45144668221473694,-0.02266509085893631
-178.9805145263672,24.747671127319336,-96.87745666503906,-4.510223865509033,0.24745476245880127,-9.641862869262695,0.613664984703064,0.4578185975551605,-0.037037674337625504
-178.60202026367188,24.47578239440918,-96.82695007324219,-4.389374732971191,0.2064734399318695,-9.21278190612793,0.618525505065918,0.4679321348667145,-0.07522721588611603
-178.2134552001953,24.194602966308594,-96.7342300415039,-4.052628517150879,0.11288643628358841,-8.708635330200195,0.6022098660469055,0.4782675802707672,-0.12223342061042786
-177.86228942871094,23.892179489135742,-96.6613540649414,-3.7178866863250732,0.060198526829481125,-8.180681228637695,0.5726954340934753,0.5153380632400513,-0.08682259172201157
-177.57144165039062,23.562639236450195,-96.66168212890625,-3.496561288833618,0.08759687095880508,-7.966507434844971,0.5339719653129578,0.538891077041626,-0.05617527663707733
-177.32284545898438,23.244022369384766,-96.68144989013672,-3.411315441131592,-0.01778004877269268,-7.84900426864624,0.4826033413410187,0.5347217321395874,-0.022795846685767174
-177.10557556152344,22.96202278137207,-96.72376251220703,-3.4442708492279053,-0.13089658319950104,-7.917635917663574,0.45600709319114685,0.5004294514656067,0.011734126135706902
-176.88136291503906,22.72902488708496,-96.76404571533203,-3.5376594066619873,-0.28459230065345764,-7.995298385620117,0.4417317509651184,0.44513073563575745,0.00943300873041153
-176.64410400390625,22.5385684967041,-96.7690658569336,-3.6359012126922607,-0.40093758702278137,-8.027830123901367,0.42790621519088745,0.38942578434944153,-0.007905078120529652
-176.3935089111328,22.37281608581543,-96.76443481445312,-3.521847724914551,-0.35400521755218506,-8.029129028320312,0.44411981105804443,0.34602460265159607,-0.00718497671186924
-176.14871215820312,22.267486572265625,-96.74609375,-3.6381337642669678,-0.30559781193733215,-8.009527206420898,0.3950437307357788,0.22686684131622314,-0.0416174940764904
-175.9980010986328,22.352426528930664,-96.60197448730469,-4.056391716003418,-0.7150347828865051,-7.607751369476318,0.2124691903591156,-0.04225672408938408,-0.18731284141540527
-175.90969848632812,22.669702529907227,-96.2530746459961,-4.488184928894043,-0.7731614112854004,-7.604008197784424,0.0987502783536911,-0.31911543011665344,-0.37645474076271057
-175.5131378173828,22.981407165527344,-95.73072052001953,-4.8062214851379395,-1.0645469427108765,-8.948736190795898,0.44689396023750305,-0.3239361047744751,-0.6086605191230774
-174.64974975585938,23.071516036987305,-95.19113159179688,-4.523989677429199,-1.2681998014450073,-9.26624870300293,0.7875553965568542,-0.22474925220012665,-0.6143391132354736
-173.94239807128906,23.019746780395508,-94.87623596191406,-4.1403608322143555,-1.327364206314087,-8.177776336669922,0.675467312335968,-0.06010064482688904,-0.502451479434967
-173.50619506835938,22.836061477661133,-94.7411880493164,-3.856968879699707,-1.150965929031372,-8.124421119689941,0.7784228920936584,0.13334810733795166,-0.3589786887168884
-172.93869018554688,22.55379295349121,-94.6872787475586,-3.5058135986328125,-0.6025978922843933,-8.769030570983887,0.8482644557952881,0.2862171232700348,-0.2833893895149231
-172.52464294433594,22.23137092590332,-94.73011779785156,-3.5851142406463623,-0.751180112361908,-8.847169876098633,0.677890419960022,0.41623395681381226,-0.07439760118722916
-172.62234497070312,21.890256881713867,-95.11670684814453,-3.1505494117736816,0.22952596843242645,-8.401084899902344,0.2503334581851959,0.5422753095626831,0.33856233954429626
-173.22860717773438,21.387264251708984,-95.96759796142578,-2.3212757110595703,-0.36782121658325195,-8.872761726379395,-0.08321868628263474,0.9132345914840698,0.8562763929367065
-173.644775390625,20.86231803894043,-96.93096160888672,-2.7870070934295654,-1.1676067113876343,-9.164655685424805,0.2113712579011917,0.7157412767410278,0.9429052472114563
-173.4730682373047,20.597225189208984,-97.71216583251953,-2.957150936126709,-0.123338982462883,-9.416128158569336,0.48865795135498047,0.8083678483963013,1.124444603919983
-173.14111328125,20.34838104248047,-98.11775970458984,-4.522098064422607,-1.1524628400802612,-9.64772891998291,0.5465368628501892,0.4220432639122009,0.42501160502433777
-172.65187072753906,20.398828506469727,-97.59317016601562,-4.813175678253174,-1.855422019958496,-9.423848152160645,0.47031569480895996,0.20349036157131195,-0.14464055001735687
-172.31634521484375,20.4051570892334,-97.07048034667969,-4.542755603790283,-1.5244172811508179,-9.222984313964844,0.3366761803627014,0.10437918454408646,-0.2768332362174988
-172.24655151367188,20.284067153930664,-96.67756652832031,-3.6878302097320557,-0.7813863754272461,-8.946676254272461,0.011531093157827854,0.22746525704860687,-0.5319010019302368
-172.17201232910156,19.9788875579834,-96.25975799560547,-3.371251344680786,-1.1450743675231934,-9.469466209411621,0.19988170266151428,0.31933221220970154,-0.4921693801879883
-171.72532653808594,19.675996780395508,-96.13024139404297,-2.718508720397949,-1.0383472442626953,-8.972793579101562,0.5113493800163269,0.403645396232605,-0.32335031032562256
-171.21304321289062,19.389968872070312,-96.11495208740234,-3.1714987754821777,-1.8165664672851562,-8.919347763061523,0.5712125301361084,0.40550610423088074,-0.26773834228515625
-170.79747009277344,19.208934783935547,-95.91117095947266,-3.574331760406494,-2.581073045730591,-9.00949478149414,0.5437703728675842,0.2603514492511749,-0.43526244163513184
-170.424072265625,19.156850814819336,-95.49522399902344,-3.7602174282073975,-1.7221633195877075,-9.408651351928711,0.4335462152957916,0.12870511412620544,-0.5233036875724792
-170.30169677734375,19.059673309326172,-95.01470947265625,-3.4205052852630615,-0.6397278308868408,-9.77820873260498,0.042415324598550797,0.1719365119934082,-0.7203751802444458
-170.4293212890625,18.853775024414062,-94.49165344238281,-3.204023838043213,-1.4380820989608765,-9.385774612426758,-0.13306209444999695,0.1761334389448166,-0.7111282348632812
-170.49722290039062,18.716093063354492,-94.24750518798828,-3.176305055618286,-1.3668911457061768,-8.505301475524902,-0.08494377136230469,0.17217206954956055,-0.4444040358066559
-170.484130859375,18.535757064819336,-94.2217025756836,-2.4402589797973633,-0.42371219396591187,-8.545549392700195,-0.04349244013428688,0.3112678527832031,-0.3592781722545624
-170.54879760742188,18.221101760864258,-94.29187774658203,-1.9612627029418945,-1.7570250034332275,-8.471061706542969,-0.11884916573762894,0.42543429136276245,-0.059598736464977264
-170.85227966308594,17.899682998657227,-94.49968719482422,-2.4080352783203125,-0.6410720348358154,-8.836992263793945,-0.34378036856651306,0.49987488985061646,-0.04777505621314049
-171.10023498535156,17.60936164855957,-94.61749267578125,-2.164362907409668,-1.5723956823349,-9.042655944824219,-0.14949677884578705,0.46023043990135193,0.10568490624427795
-171.1231231689453,17.42329978942871,-94.9904556274414,-2.201598882675171,-1.5493155717849731,-8.590544700622559,-0.04138431325554848,0.4606117606163025,0.40975555777549744
-171.30918884277344,17.22543716430664,-95.57727813720703,-2.586789131164551,-0.9432708621025085,-8.791180610656738,-0.12957899272441864,0.4946104884147644,0.6107244491577148
-171.4531707763672,16.926342010498047,-96.13597869873047,-2.7631635665893555,-1.1501944065093994,-9.781609535217285,0.12027308344841003,0.6238934397697449,0.6451023817062378
-171.45851135253906,16.605276107788086,-96.42425537109375,-3.238955497741699,-1.9989656209945679,-9.036314964294434,-0.1197056770324707,0.5020740032196045,0.35771510004997253
-171.70068359375,16.46123695373535,-96.40616607666016,-3.530545949935913,-1.7853071689605713,-8.954790115356445,-0.19837260246276855,0.36674007773399353,0.22508129477500916
-171.87152099609375,16.41681671142578,-96.37217712402344,-3.3357362747192383,-1.643570899963379,-9.458686828613281,-0.24164104461669922,0.20634149014949799,0.06809815019369125
-171.82772827148438,16.417377471923828,-96.1207504272461,-3.545905351638794,-1.7384756803512573,-9.924459457397461,-0.009971116669476032,0.10266624391078949,-0.25662192702293396
-171.51449584960938,16.41720962524414,-95.67572021484375,-3.485792398452759,-1.8585212230682373,-9.52145767211914,0.08916378021240234,-0.001588465180248022,-0.41091927886009216
-171.3218536376953,16.453327178955078,-95.3501968383789,-2.7377326488494873,-1.0995242595672607,-9.24133586883545,0.07029814273118973,-0.036032892763614655,-0.372793048620224
-171.15219116210938,16.443572998046875,-95.19257354736328,-2.4506232738494873,-0.8649827837944031,-9.297403335571289,0.23156361281871796,0.01496654748916626,-0.2993309497833252
-170.77418518066406,16.377185821533203,-95.31414031982422,-1.791382074356079,-3.360121726989746,-9.187591552734375,0.5535701513290405,0.09806860238313675,0.11186596751213074
-169.76768493652344,16.469289779663086,-96.3625259399414,-2.0525853633880615,-2.9564428329467773,-9.777295112609863,1.9461288452148438,0.0537305623292923,1.3489867448806763
-168.3596649169922,16.52730941772461,-98.06783294677734,-1.3363860845565796,-1.2418725490570068,-8.875158309936523,1.908719778060913,0.48043230175971985,1.5805847644805908
-168.1666259765625,16.0593204498291,-99.65299987792969,-3.1724534034729004,-2.01053786277771,-9.861778259277344,1.1319234371185303,0.9070815443992615,2.219780683517456
-168.56460571289062,15.947096824645996,-101.62781524658203,-1.7856332063674927,-2.4590702056884766,-9.433839797973633,1.01505708694458,0.3864811956882477,2.5905160903930664
-168.81712341308594,16.58374786376953,-103.86901092529297,-2.2895796298980713,-2.5467681884765625,-10.856834411621094,0.7967003583908081,0.15527278184890747,3.5225532054901123
-169.24383544921875,17.5201416015625,-106.39234161376953,-1.994962215423584,-2.029261350631714,-10.855534553527832,0.7729018330574036,-0.6004583835601807,3.510956048965454
-169.14413452148438,19.530052185058594,-107.96451568603516,-0.8900815844535828,-3.1900081634521484,-10.517105102539062,1.1147432327270508,-2.203533887863159,3.2130935192108154
-168.1875,23.1668701171875,-108.38587951660156,-0.33893510699272156,-2.645059585571289,-9.58670711517334,1.6988897323608398,-4.460906505584717,2.193530559539795
-166.1895751953125,27.34212303161621,-107.3238296508789,-0.8807602524757385,-2.295320510864258,-9.390609741210938,2.2820241451263428,-5.164278507232666,0.9638633728027344
-163.28927612304688,30.74127769470215,-105.22018432617188,-1.5893751382827759,-2.7166199684143066,-10.44996166229248,2.8286306858062744,-5.798379898071289,-0.2842584550380707
-159.43759155273438,33.76316452026367,-101.92456817626953,-1.053954839706421,-4.524334907531738,-8.727452278137207,3.2338149547576904,-5.850591659545898,-1.65724515914917
-155.18670654296875,34.760520935058594,-98.37613677978516,-1.8735326528549194,-4.388162612915039,-7.963923931121826,3.66076397895813,-3.4495644569396973,-2.645437479019165
-151.4055633544922,33.37297821044922,-95.8095932006836,-3.5347554683685303,-5.048346042633057,-9.421151161193848,3.853100299835205,-1.8465094566345215,-3.214106798171997
-148.0702362060547,32.46208190917969,-93.48006439208984,-4.842360973358154,-5.8358235359191895,-10.44661808013916,3.5354506969451904,-1.9150307178497314,-3.051137685775757
-145.60728454589844,32.81336212158203,-91.41639709472656,-5.776670455932617,-5.566908359527588,-10.904868125915527,2.6551833152770996,-2.101735830307007,-2.378113031387329
-144.5549774169922,33.37055587768555,-90.3620376586914,-6.286966800689697,-5.483420372009277,-11.256074905395508,1.6698267459869385,-1.4950577020645142,-1.4178805351257324
-145.5229949951172,33.227657318115234,-91.3430404663086,-6.976400852203369,-5.346158981323242,-12.434345245361328,0.22172221541404724,0.40699446201324463,0.07057290524244308
-148.8463592529297,33.05647659301758,-94.08802032470703,-5.756221294403076,-5.456174373626709,-12.123146057128906,-1.7447524070739746,0.5102753043174744,1.7281811237335205
-152.8231964111328,34.42888259887695,-96.42645263671875,-3.8204662799835205,-4.883635520935059,-9.874983787536621,-2.7099575996398926,-0.5584725737571716,2.4820778369903564
-156.1553955078125,35.94255065917969,-98.09613800048828,-2.5128304958343506,-4.080746173858643,-8.30827522277832,-3.1314377784729004,-0.3059389889240265,2.5881686210632324
-159.151611328125,36.379451751708984,-99.6303482055664,-1.669939637184143,-3.3979010581970215,-7.268000602722168,-3.248507499694824,-0.15790420770645142,2.1689188480377197
-161.30050659179688,36.35746765136719,-100.32820129394531,-1.2468314170837402,-2.7585389614105225,-6.441874980926514,-2.924337863922119,0.17966412007808685,1.3230640888214111
-162.26011657714844,35.842567443847656,-100.09612274169922,-1.2454404830932617,-2.2420196533203125,-6.003773212432861,-2.2564523220062256,0.3642258048057556,0.23697000741958618
-162.09878540039062,35.25090789794922,-98.99830627441406,-1.5785213708877563,-2.067378044128418,-5.864780426025391,-1.51372230052948,0.26609712839126587,-0.7214018702507019
-161.25747680664062,34.89946746826172,-97.46818542480469,-2.243276834487915,-1.967063546180725,-5.9874067306518555,-0.8200684785842896,-0.05652438849210739,-1.304216980934143
-160.0818328857422,35.12553405761719,-95.79179382324219,-3.243391275405884,-1.9594082832336426,-6.279007434844971,-0.3307915925979614,-0.8812963366508484,-1.53299880027771
-158.82965087890625,36.26149368286133,-94.0492935180664,-4.463453769683838,-1.8903007507324219,-6.73728084564209,-0.10209283232688904,-1.926089882850647,-1.3659659624099731
-159.10719299316406,36.360939025878906,-93.83036804199219,-7.271852493286133,-1.7279062271118164,-9.366918563842773,-0.9701434373855591,0.7566993832588196,-0.3719291687011719
-162.40367126464844,34.97123336791992,-96.03436279296875,-6.941271781921387,-1.8226815462112427,-10.023634910583496,-2.630455732345581,0.6538726687431335,1.1030681133270264
-166.36785888671875,36.319740295410156,-97.86580657958984,-5.345789432525635,-1.7283207178115845,-8.627542495727539,-3.391895055770874,-1.4355545043945312,1.6771026849746704
-169.53790283203125,39.064842224121094,-98.84394073486328,-4.528763771057129,-1.5754319429397583,-7.383543968200684,-3.6729238033294678,-2.3173999786376953,1.8733015060424805
-172.46791076660156,41.5285530090332,-99.92767333984375,-4.266861915588379,-1.2300556898117065,-6.474268436431885,-3.586019992828369,-3.1503207683563232,1.9567465782165527
-175.13681030273438,43.98788070678711,-101.07376861572266,-4.061458587646484,-0.7242528200149536,-5.377201080322266,-3.359530210494995,-3.281705617904663,1.90885591506958
-177.2428741455078,45.44212341308594,-102.07703399658203,-3.8456108570098877,-0.1724022477865219,-4.843296527862549,-2.6641974449157715,-2.326711416244507,1.4849579334259033
-178.34373474121094,46.33341598510742,-102.62027740478516,-4.516719818115234,-0.0059027401730418205,-5.144764423370361,-1.9461008310317993,-2.4978175163269043,1.1329069137573242
-179.12420654296875,47.52684783935547,-103.03720092773438,-4.640161037445068,-0.5005820393562317,-5.452953338623047,-1.5289924144744873,-1.911443829536438,0.939455509185791
179.41644287109375,47.88467788696289,-103.9594955444336,-5.740185737609863,-0.5402029752731323,-7.437840938568115,-1.7822291851043701,-1.2186431884765625,1.277424931526184
176.3618621826172,48.00039291381836,-105.73703002929688,-5.624884605407715,-0.02343790791928768,-8.18376636505127,-2.805330514907837,-0.9767071008682251,1.7009550333023071
171.2322998046875,47.52527618408203,-108.45977020263672,-6.407492637634277,-1.5199687480926514,-8.947931289672852,-4.430237770080566,0.2113191932439804,2.814849615097046
164.0736541748047,47.02413558959961,-112.593017578125,-5.835081577301025,1.0925328731536865,-9.676969528198242,-5.651284217834473,-1.3815587759017944,3.7375435829162598
155.98800659179688,49.83660888671875,-117.48841857910156,-3.5467023849487305,3.136561155319214,-7.062641620635986,-6.425405502319336,-4.959229469299316,2.8585407733917236
148.4808349609375,55.23424530029297,-122.0045166015625,-2.0749025344848633,-2.138711929321289,-3.5396342277526855,-5.77893590927124,-7.180353164672852,1.0695589780807495
144.70509338378906,58.694576263427734,-123.18659973144531,-2.9377050399780273,3.4804046154022217,-1.0279836654663086,-5.238413333892822,-3.668217182159424,-0.29697686433792114
145.04856872558594,57.1130256652832,-119.9621810913086,-7.552026271820068,0.7550052404403687,1.4220452308654785,-4.636136054992676,0.32549920678138733,0.1683075726032257
145.22879028320312,53.91096878051758,-118.25154113769531,-7.0534796714782715,1.6519602537155151,2.7088475227355957,-2.776780843734741,1.6020108461380005,1.000046968460083
146.2244415283203,52.03232955932617,-118.10900115966797,-5.388322830200195,0.5189484357833862,2.3017358779907227,-0.3215287923812866,1.5790773630142212,0.7750540971755981
149.73727416992188,51.38335418701172,-116.63555908203125,-4.635254859924316,3.931948184967041,-0.3070424497127533,1.6450427770614624,1.8399038314819336,-0.6091467142105103
154.53811645507812,51.347782135009766,-113.33406066894531,-6.242721080780029,1.6718333959579468,-4.578682899475098,1.8636751174926758,1.4752966165542603,-1.8297123908996582
156.92520141601562,52.05332565307617,-110.89510345458984,-8.3323974609375,0.9236244559288025,-6.406609535217285,0.5599210262298584,0.34579241275787354,-1.7092751264572144
156.02944946289062,53.13541793823242,-110.5374755859375,-8.399434089660645,1.7349969148635864,-5.17097806930542,-0.794560968875885,-0.42034339904785156,-1.2231239080429077
155.12738037109375,54.22110366821289,-109.90397644042969,-7.435202598571777,2.6096205711364746,-2.562382221221924,-1.1430304050445557,-0.651344358921051,-1.8669060468673706
156.06715393066406,55.49631881713867,-107.88516235351562,-8.780353546142578,1.389954686164856,-1.1650230884552002,-0.895593523979187,-0.9662348628044128,-2.1234540939331055
157.20013427734375,56.247291564941406,-106.25785064697266,-9.645127296447754,1.1001116037368774,-0.9567290544509888,-0.6334642171859741,-0.2772762179374695,-1.7180496454238892
157.90304565429688,55.95836639404297,-105.16603088378906,-9.618210792541504,-0.06897727400064468,-1.2854669094085693,-0.6003924608230591,0.1749504655599594,-1.20341157913208
158.3966064453125,55.54259490966797,-104.25940704345703,-8.685656547546387,2.084989547729492,-1.1409084796905518,-0.47117799520492554,0.5543749928474426,-1.0766857862472534
159.6946258544922,55.18467712402344,-102.65802764892578,-8.351344108581543,-0.6045019626617432,-1.9471529722213745,-0.15804973244667053,0.7679670453071594,-1.3917977809906006
161.38467407226562,54.90521240234375,-100.81570434570312,-9.620914459228516,0.10025381296873093,-2.5638046264648438,-0.002839815802872181,0.8495481014251709,-1.2642945051193237
162.44927978515625,54.42721176147461,-99.7888412475586,-10.126230239868164,0.14168719947338104,-3.0604472160339355,0.23894326388835907,1.0294640064239502,-0.856004536151886
163.4045867919922,53.474666595458984,-99.05720520019531,-9.701580047607422,-0.47858357429504395,-2.7297160625457764,0.3994763195514679,1.6246867179870605,-0.6418325901031494
164.32936096191406,52.29784393310547,-98.4078369140625,-9.775936126708984,-1.028804063796997,-2.730501890182495,0.5563850402832031,1.5663264989852905,-0.2983020544052124
164.84544372558594,51.52915573120117,-98.10470581054688,-9.073619842529297,1.1313451528549194,-3.144047737121582,0.329763799905777,1.4372786283493042,-0.3047372102737427
165.5894775390625,50.88974380493164,-96.99696350097656,-8.227023124694824,-0.7709833383560181,-3.426126718521118,0.009245358407497406,1.5231801271438599,-0.8714938163757324
166.7509002685547,50.23554229736328,-95.11506652832031,-9.733516693115234,0.4470060169696808,-4.389231204986572,-0.21294768154621124,1.5315945148468018,-1.1736340522766113
167.6199951171875,49.883750915527344,-93.51300048828125,-10.268659591674805,-0.2978094518184662,-3.930889368057251,-0.42177605628967285,0.9975847601890564,-1.3028171062469482
168.34091186523438,49.73258972167969,-92.13397979736328,-10.229095458984375,-0.024199755862355232,-2.8971028327941895,-0.3969685137271881,1.126076102256775,-1.322645664215088
169.41946411132812,49.01386260986328,-90.63888549804688,-10.290685653686523,-0.3011937141418457,-2.923426628112793,-0.12919192016124725,1.4368739128112793,-1.4027127027511597
170.9406280517578,48.28049087524414,-89.02803039550781,-10.723553657531738,-0.301585853099823,-3.372020721435547,0.274469256401062,1.2682479619979858,-1.5344797372817993
172.8729248046875,48.02450180053711,-87.4084243774414,-11.202961921691895,-0.09190704673528671,-3.957749128341675,0.8452401161193848,0.8746309876441956,-1.678210735321045
175.13522338867188,47.93949508666992,-85.88026428222656,-12.220934867858887,0.14128953218460083,-5.0023651123046875,1.3710862398147583,0.7222571969032288,-1.6282193660736084
