Roll,Pitch,Yaw,AccX,AccY,AccZ,GyroX,GyroY,GyroZ
-17.060672760009766,9.321179389953613,-41.71610641479492,-1.3833189010620117,-2.791516065597534,9.218432426452637,0.03512334078550339,-0.07853396981954575,-0.00855475664138794
-17.037343978881836,9.27214241027832,-41.70448303222656,-1.3567029237747192,-2.789541721343994,9.221765518188477,0.033624280244112015,-0.0910743996500969,-0.00685863196849823
-17.01648712158203,9.22304916381836,-41.689388275146484,-1.3798179626464844,-2.801908254623413,9.201567649841309,0.03341120108962059,-0.07442794740200043,-0.003848597640171647
-16.994993209838867,9.20032024383545,-41.68158721923828,-1.4010863304138184,-2.759467601776123,9.215678215026855,0.035320039838552475,-0.05590059608221054,-0.003774837125092745
-16.97484016418457,9.183484077453613,-41.677608489990234,-1.419634461402893,-2.7310261726379395,9.213102340698242,0.031896866858005524,-0.04608147218823433,-0.003847852349281311
-16.958642959594727,9.161844253540039,-41.672698974609375,-1.4235740900039673,-2.7035810947418213,9.227448463439941,0.030144860967993736,-0.045710425823926926,-0.005135311745107174
-16.94190788269043,9.145059585571289,-41.6707649230957,-1.433626413345337,-2.680422306060791,9.24862289428711,0.030188079923391342,-0.02675355039536953,-0.006067752838134766
-16.926532745361328,9.143592834472656,-41.67380142211914,-1.4509553909301758,-2.6493172645568848,9.243005752563477,0.027363192290067673,-0.017336757853627205,-0.006575883831828833
-16.91342544555664,9.141289710998535,-41.67580032348633,-1.4737519025802612,-2.6390750408172607,9.238887786865234,0.02606455236673355,-0.009551272727549076,-0.006194785237312317
-16.89874267578125,9.138422966003418,-41.67523193359375,-1.4909662008285522,-2.6282413005828857,9.242807388305664,0.026525743305683136,-0.010251626372337341,-0.002810731763020158
-16.880861282348633,9.131385803222656,-41.6693229675293,-1.5387204885482788,-2.6386449337005615,9.265312194824219,0.02892557717859745,-0.011305883526802063,0.00049453234532848
-16.86029624938965,9.123916625976562,-41.66058349609375,-1.572204351425171,-2.676337957382202,9.276410102844238,0.03080536052584648,-0.013220311142504215,0.0055374582298099995
-16.840295791625977,9.11137580871582,-41.64591979980469,-1.6033209562301636,-2.6947357654571533,9.240555763244629,0.028769860044121742,-0.023681670427322388,0.01054611150175333
-16.824228286743164,9.086759567260742,-41.62540054321289,-1.5973035097122192,-2.6655874252319336,9.219026565551758,0.024091266095638275,-0.03846026957035065,0.014950151555240154
-16.80964469909668,9.059555053710938,-41.60171890258789,-1.5771949291229248,-2.666527509689331,9.227093696594238,0.023373592644929886,-0.03988407924771309,0.018933791667222977
-16.792484283447266,9.041881561279297,-41.5804443359375,-1.554497241973877,-2.6393141746520996,9.232743263244629,0.02463441900908947,-0.036017224192619324,0.019916333258152008
-16.775524139404297,9.029726028442383,-41.56198501586914,-1.5488018989562988,-2.6076440811157227,9.222453117370605,0.023066068068146706,-0.030694901943206787,0.021186286583542824
-16.762239456176758,9.021270751953125,-41.54471206665039,-1.5110102891921997,-2.611218214035034,9.227401733398438,0.019810913130640984,-0.02534799836575985,0.02073105424642563
-16.74920654296875,9.01463794708252,-41.53022384643555,-1.4737169742584229,-2.643357515335083,9.246085166931152,0.02181847020983696,-0.020970778539776802,0.018923170864582062
-16.732444763183594,9.009561538696289,-41.51728439331055,-1.4628673791885376,-2.662522077560425,9.280668258666992,0.023509003221988678,-0.016593189910054207,0.01829546131193638
-16.7191104888916,9.007827758789062,-41.50493240356445,-1.4443440437316895,-2.6580333709716797,9.29038143157959,0.017972474917769432,-0.010781362652778625,0.018104350194334984
-16.711917877197266,9.009567260742188,-41.49367904663086,-1.436699390411377,-2.6726934909820557,9.273394584655762,0.014853663742542267,-0.005709007382392883,0.017159247770905495
-16.701879501342773,9.0099515914917,-41.482566833496094,-1.4408830404281616,-2.7106680870056152,9.239761352539062,0.017354825511574745,-0.0073332348838448524,0.017527306452393532
-16.686885833740234,9.007279396057129,-41.46902084350586,-1.4432426691055298,-2.6881582736968994,9.211878776550293,0.01969691552221775,-0.006980076432228088,0.018796510994434357
-16.671960830688477,9.005110740661621,-41.454856872558594,-1.4366437196731567,-2.6646270751953125,9.215270042419434,0.019470788538455963,-0.008591637946665287,0.019817613065242767
-16.658367156982422,9.004183769226074,-41.440826416015625,-1.4465198516845703,-2.650925874710083,9.225390434265137,0.019945763051509857,-0.004136190749704838,0.01927707903087139
-16.64517593383789,9.006690979003906,-41.429168701171875,-1.4486972093582153,-2.651110887527466,9.230586051940918,0.019144827499985695,-0.003357231616973877,0.018892625346779823
-16.633255004882812,9.008612632751465,-41.41788864135742,-1.4557099342346191,-2.633481740951538,9.230989456176758,0.01826900988817215,-0.000533461628947407,0.01806747354567051
-16.622539520263672,9.013360977172852,-41.4080696105957,-1.4756276607513428,-2.646592378616333,9.252063751220703,0.016598964110016823,0.0028060749173164368,0.017715061083436012
-16.612667083740234,9.018145561218262,-41.39799118041992,-1.4794114828109741,-2.6699419021606445,9.253374099731445,0.016044262796640396,0.0025758519768714905,0.016530418768525124
-16.60281753540039,9.018586158752441,-41.38901901245117,-1.4775500297546387,-2.6745657920837402,9.265247344970703,0.014941209927201271,-0.0010509045096114278,0.014949778094887733
-16.593435287475586,9.016365051269531,-41.38026428222656,-1.4756052494049072,-2.6768808364868164,9.26939868927002,0.01486223191022873,-0.0017505140276625752,0.012843125499784946
-16.58424949645996,9.016389846801758,-41.374839782714844,-1.475192666053772,-2.6604511737823486,9.230646133422852,0.014388374984264374,0.0006804242148064077,0.009122675284743309
-16.577669143676758,9.020262718200684,-41.37374496459961,-1.4815245866775513,-2.6389479637145996,9.245516777038574,0.011449865996837616,0.006175600923597813,0.005372800398617983
-16.572856903076172,9.028156280517578,-41.37643814086914,-1.488071084022522,-2.636465549468994,9.239371299743652,0.011753852479159832,0.011500902473926544,0.0017201531445607543
-16.565568923950195,9.037188529968262,-41.3801155090332,-1.4997727870941162,-2.6408863067626953,9.24855899810791,0.013187714852392673,0.014227069914340973,8.437782526016235e-05
-16.558870315551758,9.042783737182617,-41.381103515625,-1.5223562717437744,-2.6433475017547607,9.253941535949707,0.010295397602021694,0.00975038856267929,0.000813789723906666
-16.55373191833496,9.042572021484375,-41.37779235839844,-1.5525168180465698,-2.660857915878296,9.246238708496094,0.010732747614383698,0.00513959676027298,0.002546422416344285
-16.547964096069336,9.040301322937012,-41.37214660644531,-1.5761620998382568,-2.667422294616699,9.255775451660156,0.007840804755687714,0.000623054860625416,0.004569999873638153
-16.545917510986328,9.036859512329102,-41.364654541015625,-1.5735082626342773,-2.644644021987915,9.246238708496094,0.0041732569225132465,-0.0023033469915390015,0.006676279008388519
-16.54506492614746,9.03514289855957,-41.35634231567383,-1.5645288228988647,-2.6155638694763184,9.23176097869873,0.0026663767639547586,-0.0014115124940872192,0.008719229139387608
-16.543210983276367,9.038372039794922,-41.34920120239258,-1.5574144124984741,-2.5975942611694336,9.245567321777344,0.002497992943972349,0.00352468341588974,0.009659119881689548
-16.54051971435547,9.0382719039917,-41.34135437011719,-1.5427119731903076,-2.616621494293213,9.28001594543457,0.002526678144931793,-0.006293505895882845,0.00981893390417099
-16.536968231201172,9.026373863220215,-41.331153869628906,-1.5482304096221924,-2.663827896118164,9.275653839111328,0.0031990930438041687,-0.012397394515573978,0.008478202857077122
-16.533187866210938,9.014877319335938,-41.32255935668945,-1.5450507402420044,-2.6704766750335693,9.280623435974121,0.0032341107726097107,-0.014933199621737003,0.00848080962896347
-16.530202865600586,9.003619194030762,-41.31253433227539,-1.530409336090088,-2.6827731132507324,9.26345443725586,0.0021753835026174784,-0.01867339201271534,0.009168125689029694
-16.525663375854492,8.9956636428833,-41.30298614501953,-1.5184595584869385,-2.684356451034546,9.253134727478027,0.006169639527797699,-0.01161880698055029,0.009016506373882294
-16.515783309936523,8.994698524475098,-41.2965202331543,-1.4828739166259766,-2.70871901512146,9.296096801757812,0.011206604540348053,-0.009329617954790592,0.008680113591253757
-16.50188636779785,8.991409301757812,-41.28742980957031,-1.4968308210372925,-2.7480852603912354,9.321269035339355,0.01649465598165989,-0.009676441550254822,0.011893549002707005
-16.487335205078125,8.988277435302734,-41.2734489440918,-1.5190577507019043,-2.7595908641815186,9.338913917541504,0.01613442413508892,-0.009022281505167484,0.015964172780513763
-16.477968215942383,8.986523628234863,-41.25757598876953,-1.51002836227417,-2.767829179763794,9.328447341918945,0.012111105024814606,-0.008851290680468082,0.019644755870103836
-16.470144271850586,8.986553192138672,-41.24113845825195,-1.4909319877624512,-2.783353328704834,9.311792373657227,0.012899004854261875,-0.005721673369407654,0.022104941308498383
-16.46248435974121,8.990081787109375,-41.226593017578125,-1.4616968631744385,-2.7074050903320312,9.251466751098633,0.008429774083197117,-0.0016961249057203531,0.02120826579630375
-16.460384368896484,8.993158340454102,-41.21623611450195,-1.4045062065124512,-2.641463279724121,9.203837394714355,0.005085207521915436,-0.0013589856680482626,0.01760665513575077
-16.45542335510254,8.996087074279785,-41.21220016479492,-1.3681951761245728,-2.663576126098633,9.231937408447266,0.010653400793671608,0.0051120310090482235,0.01004096120595932
-16.44500160217285,9.005117416381836,-41.21702194213867,-1.3387415409088135,-2.677502393722534,9.239311218261719,0.013748743571341038,0.013644061982631683,0.0020155683159828186
-16.437829971313477,9.016714096069336,-41.2267951965332,-1.3138325214385986,-2.6274707317352295,9.200674057006836,0.011816807091236115,0.018150174990296364,-0.004000961780548096
-16.434814453125,9.024297714233398,-41.23660659790039,-1.323405385017395,-2.593658685684204,9.182659149169922,0.009635278023779392,0.015525334514677525,-0.00818111002445221
-16.430946350097656,9.029450416564941,-41.24648666381836,-1.3446186780929565,-2.5991971492767334,9.197537422180176,0.011394733563065529,0.01862291805446148,-0.011418016627430916
-16.42481231689453,9.036965370178223,-41.259037017822266,-1.3791261911392212,-2.6003596782684326,9.21761417388916,0.012148172594606876,0.018144026398658752,-0.015497207641601562
-16.41919708251953,9.040305137634277,-41.27107620239258,-1.4075456857681274,-2.5892813205718994,9.219661712646484,0.012143513187766075,0.014555641449987888,-0.01615174114704132
-16.414005279541016,9.042031288146973,-41.28095245361328,-1.4141799211502075,-2.5986480712890625,9.225675582885742,0.01150462869554758,0.013789721764624119,-0.016379356384277344
-16.40866470336914,9.048320770263672,-41.2928581237793,-1.4289418458938599,-2.6047213077545166,9.242873191833496,0.013049879111349583,0.019737515598535538,-0.01839958317577839
-16.40316390991211,9.05670166015625,-41.30723190307617,-1.4408961534500122,-2.5616581439971924,9.267175674438477,0.0117449089884758,0.017627516761422157,-0.01926235668361187
-16.400169372558594,9.058873176574707,-41.31995391845703,-1.475009799003601,-2.5313432216644287,9.282098770141602,0.009833463467657566,0.014566071331501007,-0.021021069958806038
-16.397857666015625,9.060063362121582,-41.33379364013672,-1.5114973783493042,-2.543090581893921,9.323575019836426,0.009468012489378452,0.014272146858274937,-0.022051110863685608
-16.3953800201416,9.063664436340332,-41.34840774536133,-1.5234004259109497,-2.5387861728668213,9.330178260803223,0.008532963693141937,0.016131440177559853,-0.02355240285396576
-16.394304275512695,9.06927490234375,-41.36390686035156,-1.511141061782837,-2.49645733833313,9.29832935333252,0.006821565795689821,0.017627142369747162,-0.023063644766807556
-16.392515182495117,9.076445579528809,-41.3776969909668,-1.519522786140442,-2.518009901046753,9.29247760772705,0.008386560715734959,0.019778497517108917,-0.02147555537521839
-16.38636016845703,9.089296340942383,-41.39088439941406,-1.5536284446716309,-2.5520823001861572,9.319329261779785,0.012616255320608616,0.028404785320162773,-0.019038841128349304
-16.37788963317871,9.111310958862305,-41.404029846191406,-1.604722261428833,-2.5560457706451416,9.303877830505371,0.013975243084132671,0.03726687282323837,-0.01538731437176466
-16.371841430664062,9.136595726013184,-41.41436767578125,-1.6539808511734009,-2.567256212234497,9.263349533081055,0.011843257583677769,0.041096098721027374,-0.01016072928905487
-16.3676815032959,9.156120300292969,-41.42011260986328,-1.695420265197754,-2.577770948410034,9.236706733703613,0.010800548829138279,0.034306012094020844,-0.007235631812363863
-16.364091873168945,9.164347648620605,-41.421817779541016,-1.7249845266342163,-2.567038059234619,9.217264175415039,0.007519684731960297,0.023927725851535797,-0.0034019353333860636
-16.361997604370117,9.165148735046387,-41.41889953613281,-1.7505608797073364,-2.5730490684509277,9.21760082244873,0.005913339089602232,0.0128990039229393,-0.00048615041305311024
-16.358375549316406,9.15880298614502,-41.411739349365234,-1.7478737831115723,-2.591505289077759,9.218586921691895,0.005737878382205963,-0.0004187226586509496,0.0036956744734197855
-16.35499382019043,9.14651107788086,-41.39990234375,-1.707352876663208,-2.618574380874634,9.212185859680176,0.0025549905840307474,-0.01047477126121521,0.0075461347587406635
-16.35496711730957,9.133264541625977,-41.3853645324707,-1.6788069009780884,-2.620539426803589,9.172101974487305,-0.0010505319805815816,-0.01665950007736683,0.011931546032428741
-16.355066299438477,9.119271278381348,-41.36713790893555,-1.6186777353286743,-2.586484432220459,9.157461166381836,-0.0018071383237838745,-0.023488329723477364,0.016809813678264618
-16.35285186767578,9.103005409240723,-41.346649169921875,-1.576106309890747,-2.5953288078308105,9.164738655090332,-0.0013187527656555176,-0.027883799746632576,0.019404852762818336
-16.34959602355957,9.088126182556152,-41.32683181762695,-1.5399187803268433,-2.619018077850342,9.175605773925781,-0.0005185604677535594,-0.027639418840408325,0.021155739203095436
-16.34654426574707,9.075565338134766,-41.30881118774414,-1.5075485706329346,-2.626573324203491,9.168670654296875,-0.0006478280411101878,-0.027401374652981758,0.019779987633228302
-16.34450340270996,9.062183380126953,-41.29405212402344,-1.4769210815429688,-2.647656202316284,9.17981243133545,-0.0005155801773071289,-0.027135392650961876,0.01692008599638939
-16.3419189453125,9.05030345916748,-41.282249450683594,-1.4487576484680176,-2.6867141723632812,9.22127914428711,0.0009996817680075765,-0.023212656378746033,0.014267303049564362
-16.3380126953125,9.041380882263184,-41.27389907836914,-1.427819013595581,-2.6791155338287354,9.26963996887207,0.002810918027535081,-0.02033933997154236,0.010141544975340366
-16.333396911621094,9.031827926635742,-41.26858901977539,-1.4104541540145874,-2.6678433418273926,9.286739349365234,0.004517100751399994,-0.018993765115737915,0.006669946480542421
-16.330036163330078,9.023106575012207,-41.263832092285156,-1.3956269025802612,-2.657578945159912,9.297874450683594,0.002638809382915497,-0.015682728961110115,0.005150027573108673
-16.331401824951172,9.019002914428711,-41.260169982910156,-1.3775650262832642,-2.632779836654663,9.274567604064941,-0.0016920269699767232,-0.009352341294288635,0.003528781235218048
-16.33682632446289,9.018540382385254,-41.258487701416016,-1.3892114162445068,-2.619102954864502,9.247946739196777,-0.005760416854172945,-0.0052869319915771484,0.002056174213066697
-16.342863082885742,9.020217895507812,-41.25748062133789,-1.386970043182373,-2.6099741458892822,9.235421180725098,-0.0069797043688595295,0.0007918105111457407,0.002211146056652069
-16.34818458557129,9.026979446411133,-41.257179260253906,-1.4011058807373047,-2.617682456970215,9.223379135131836,-0.008352844044566154,0.007697380613535643,0.0016918403562158346
-16.35367202758789,9.034296035766602,-41.25822448730469,-1.4174047708511353,-2.611116647720337,9.212484359741211,-0.008180364966392517,0.008337385021150112,0.0007273629889823496
-16.35915184020996,9.037528038024902,-41.258670806884766,-1.4225795269012451,-2.593890905380249,9.192605018615723,-0.009825079701840878,0.007549487054347992,-4.656612509279512e-05
-16.365127563476562,9.03978443145752,-41.259090423583984,-1.4449384212493896,-2.5961625576019287,9.209177017211914,-0.008881093002855778,0.00733230309560895,-0.000655650976113975
-16.366567611694336,9.041239738464355,-41.260162353515625,-1.4651063680648804,-2.6211671829223633,9.23936939239502,-0.0033624470233917236,0.005765445996075869,-0.002343207597732544
-16.362503051757812,9.040526390075684,-41.2607536315918,-1.4888981580734253,-2.6630096435546875,9.298150062561035,0.0016802923055365682,0.003494135569781065,-0.0024288888089358807
-16.354841232299805,9.038092613220215,-41.25967025756836,-1.5185925960540771,-2.666705846786499,9.345939636230469,0.00781286507844925,0.00018905849719885737,-0.0009823590517044067
-16.345678329467773,9.035270690917969,-41.255741119384766,-1.5459593534469604,-2.6296205520629883,9.346996307373047,0.008561275899410248,-0.0007625669240951538,0.0017894433112815022
-16.34297752380371,9.03482723236084,-41.25031280517578,-1.5592347383499146,-2.574322462081909,9.314552307128906,0.0023128464818000793,0.00020843003585468978,0.0039247795939445496
-16.34822654724121,9.036917686462402,-41.245025634765625,-1.5750418901443481,-2.5323429107666016,9.275829315185547,-0.0045064836740493774,0.002624653512611985,0.005481578875333071
-16.35650634765625,9.041440963745117,-41.240604400634766,-1.5668556690216064,-2.5341708660125732,9.243183135986328,-0.008982047438621521,0.005708449054509401,0.005705095827579498
-16.363466262817383,9.045449256896973,-41.237972259521484,-1.5510916709899902,-2.541728973388672,9.241548538208008,-0.008687750436365604,0.004758127499371767,0.0047421082854270935
-16.36692237854004,9.045894622802734,-41.23444747924805,-1.5262788534164429,-2.577043056488037,9.243070602416992,-0.007469580043107271,0.0026138504035770893,0.004986860323697329
-16.369781494140625,9.044465065002441,-41.22834014892578,-1.5111593008041382,-2.5912039279937744,9.23146915435791,-0.008061901666224003,-0.0006046146154403687,0.0070931389927864075
-16.374197006225586,9.042733192443848,-41.219818115234375,-1.504227638244629,-2.5734047889709473,9.217301368713379,-0.009657815098762512,-0.0012937934370711446,0.009386427700519562
-16.37775421142578,9.043905258178711,-41.21107482910156,-1.5019537210464478,-2.5731515884399414,9.217192649841309,-0.007168203126639128,0.0010555611224845052,0.010588578879833221
-16.378475189208984,9.048222541809082,-41.203853607177734,-1.4912029504776,-2.55786395072937,9.225688934326172,-0.005902722477912903,0.004004873801022768,0.010797938331961632
-16.378684997558594,9.051665306091309,-41.196842193603516,-1.5000609159469604,-2.5471038818359375,9.223377227783203,-0.0037312509957700968,0.0020390376448631287,0.010976754128932953
-16.37833023071289,9.052627563476562,-41.19044876098633,-1.5158802270889282,-2.5565185546875,9.232165336608887,-0.003542006015777588,0.002990477019920945,0.009134970605373383
-16.38018035888672,9.056041717529297,-41.18701934814453,-1.5184659957885742,-2.5613958835601807,9.242648124694824,-0.004430859815329313,0.005869381595402956,0.006585754454135895
-16.383813858032227,9.058853149414062,-41.18629837036133,-1.4998008012771606,-2.5566864013671875,9.258394241333008,-0.005873292684555054,0.004022382665425539,0.0033432617783546448
-16.389251708984375,9.057051658630371,-41.18582534790039,-1.4946855306625366,-2.535142421722412,9.279635429382324,-0.008435548283159733,0.0010827556252479553,0.001596100628376007
-16.396108627319336,9.054296493530273,-41.18329620361328,-1.502052903175354,-2.553128480911255,9.289990425109863,-0.010245293378829956,-0.0002074987132800743,0.0023053959012031555
-16.40221405029297,9.050095558166504,-41.1800651550293,-1.5073997974395752,-2.567763328552246,9.28597640991211,-0.009966641664505005,-0.004803389310836792,0.0008268282399512827
-16.40711784362793,9.041086196899414,-41.17714309692383,-1.5094118118286133,-2.6145248413085938,9.288623809814453,-0.009847435168921947,-0.0093460101634264,-1.2665989743254613e-05
-16.410140991210938,9.028748512268066,-41.173851013183594,-1.482516884803772,-2.674250602722168,9.29904842376709,-0.006541237235069275,-0.015204773284494877,-0.0014960767002776265
-16.409887313842773,9.01363754272461,-41.17033767700195,-1.434273600578308,-2.6896111965179443,9.293314933776855,-0.003991276025772095,-0.018487127497792244,-0.0023420900106430054
-16.41041374206543,9.002218246459961,-41.16872024536133,-1.4207087755203247,-2.677485704421997,9.271222114562988,-0.004156306851655245,-0.01413338165730238,-0.003736838698387146
-16.41234016418457,9.001211166381836,-41.1706657409668,-1.4243265390396118,-2.6902456283569336,9.247488021850586,-0.0028248876333236694,-0.002439692849293351,-0.004388391971588135
-16.412729263305664,9.008875846862793,-41.17558288574219,-1.4266453981399536,-2.6855580806732178,9.238264083862305,-0.0008586794720031321,0.006123445928096771,-0.005669146776199341
-16.41177749633789,9.01476764678955,-41.1796760559082,-1.4419909715652466,-2.6844871044158936,9.244892120361328,0.0006340444670058787,0.0058922916650772095,-0.004546717274934053
-16.409767150878906,9.014786720275879,-41.180206298828125,-1.4598585367202759,-2.723996639251709,9.266825675964355,0.0019883739296346903,0.0031443315092474222,-0.003991648554801941
-16.40668487548828,9.017921447753906,-41.18145751953125,-1.4975494146347046,-2.7035751342773438,9.254889488220215,0.004245527554303408,0.011311285197734833,-0.0034216793719679117
-16.408597946166992,9.01869010925293,-41.18310546875,-1.4586560726165771,-2.682595729827881,9.265247344970703,-0.005444884765893221,-0.0036872923374176025,-0.004183128476142883
-16.41657829284668,8.99879264831543,-41.1770133972168,-1.4012595415115356,-2.6384193897247314,9.243517875671387,-0.006038695108145475,-0.01861303672194481,-0.001129135605879128
-16.41733169555664,9.000333786010742,-41.178611755371094,-1.4921588897705078,-2.67718768119812,9.239469528198242,-0.0005222857580520213,0.020788798108696938,-0.006573274731636047
-16.417490005493164,9.030097007751465,-41.19447326660156,-1.5061942338943481,-2.658156156539917,9.257461547851562,-0.0015862287255004048,0.02082865685224533,-0.008305163122713566
-16.4168643951416,9.0376558303833,-41.20008087158203,-1.4754701852798462,-2.6112468242645264,9.22716236114502,0.0035082923714071512,0.017916221171617508,-0.0055976202711462975
-16.412166595458984,9.036300659179688,-41.19804382324219,-1.5384750366210938,-2.6202571392059326,9.264461517333984,0.002386979991570115,0.002271123230457306,-0.0020533802453428507
-16.412282943725586,9.03429126739502,-41.19344711303711,-1.5876729488372803,-2.6154751777648926,9.262401580810547,-0.0005193055258132517,0.012619980610907078,0.0011822208762168884
-16.41536521911621,9.04671573638916,-41.19355392456055,-1.5800319910049438,-2.5955352783203125,9.240328788757324,-0.002612919081002474,0.013105574063956738,0.0007264317246153951
-16.417081832885742,9.049571990966797,-41.19129943847656,-1.58697509765625,-2.5461456775665283,9.236446380615234,-0.0016905368538573384,0.0057755038142204285,0.0036915764212608337
-16.416889190673828,9.049759864807129,-41.18457794189453,-1.5735496282577515,-2.5255959033966064,9.252670288085938,-0.0025749201886355877,0.0069992621429264545,0.006173737347126007
-16.41952133178711,9.050457954406738,-41.178001403808594,-1.5659849643707275,-2.528348445892334,9.258708953857422,-0.005745514761656523,-0.0007443129434250295,0.007125549018383026
-16.423099517822266,9.047697067260742,-41.170440673828125,-1.5458450317382812,-2.5528924465179443,9.269088745117188,-0.005327165592461824,0.002002902328968048,0.008309447206556797
-16.42242431640625,9.050448417663574,-41.16398239135742,-1.5260136127471924,-2.5890092849731445,9.288105010986328,-0.001267343875952065,0.0011408701539039612,0.00939536839723587
-16.419580459594727,9.051021575927734,-41.15570068359375,-1.4920523166656494,-2.6186811923980713,9.276493072509766,-0.0014115123776718974,0.0006237998604774475,0.010039844550192356
-16.420289993286133,9.052898406982422,-41.14912796020508,-1.471011757850647,-2.626640558242798,9.24506664276123,-0.003094226121902466,0.0030329450964927673,0.0092579061165452
-16.422800064086914,9.058915138244629,-41.14646911621094,-1.4617334604263306,-2.636655807495117,9.22305679321289,-0.0035811217967420816,0.008991174399852753,0.006118603516370058
-16.424734115600586,9.067853927612305,-41.1480712890625,-1.4505707025527954,-2.6362032890319824,9.215607643127441,-0.0026788562536239624,0.01228321436792612,0.0032728544902056456
-16.424419403076172,9.071770668029785,-41.14997863769531,-1.4385130405426025,-2.6393394470214844,9.223125457763672,-6.705523446726147e-06,0.006750413682311773,-0.00023432078887708485
-16.421157836914062,9.06758975982666,-41.15107727050781,-1.4482578039169312,-2.6786322593688965,9.242349624633789,0.003197602927684784,0.0017641112208366394,-0.0026695432607084513
-16.41790008544922,9.064129829406738,-41.153289794921875,-1.4640768766403198,-2.7112033367156982,9.250964164733887,0.002905912697315216,0.002818369073793292,-0.004704296588897705
-16.41849136352539,9.0631685256958,-41.15663146972656,-1.4587961435317993,-2.7014567852020264,9.254093170166016,2.8498476240201853e-05,0.0015834348741918802,-0.006003306247293949
-16.42173194885254,9.058032989501953,-41.15852355957031,-1.4420078992843628,-2.6929192543029785,9.268013000488281,-0.0024031843058764935,-0.0038161876145750284,-0.006393715739250183
-16.423913955688477,9.051623344421387,-41.159759521484375,-1.429386854171753,-2.6608879566192627,9.26701831817627,-0.001230090856552124,-0.00220052944496274,-0.006599725689738989
-16.424867630004883,9.052725791931152,-41.16332244873047,-1.4248675107955933,-2.612257480621338,9.248246192932129,-0.0019554051104933023,0.004678032360970974,-0.007416680920869112
-16.42772102355957,9.059117317199707,-41.1688346862793,-1.4397879838943481,-2.6099014282226562,9.239096641540527,-0.0028334560338407755,0.009209103882312775,-0.007398426532745361
-16.42936897277832,9.065506935119629,-41.17485809326172,-1.4696598052978516,-2.6174983978271484,9.24556827545166,-0.0005356968031264842,0.011635012924671173,-0.008533150888979435
-16.428442001342773,9.07213306427002,-41.18251037597656,-1.5052908658981323,-2.6291959285736084,9.247069358825684,0.0012373551726341248,0.014933757483959198,-0.009921939112246037
-16.42726707458496,9.078605651855469,-41.19021224975586,-1.5225361585617065,-2.6096227169036865,9.2467679977417,0.0022383409086614847,0.013885460793972015,-0.010097027756273746
-16.42604637145996,9.080822944641113,-41.19529724121094,-1.553539514541626,-2.5725343227386475,9.253201484680176,0.0024458395782858133,0.009953044354915619,-0.009454414248466492
-16.42582893371582,9.081306457519531,-41.198204040527344,-1.5835027694702148,-2.5360777378082275,9.26485824584961,0.0007821247563697398,0.0086979940533638,-0.00693462835624814
-16.426305770874023,9.083378791809082,-41.19888687133789,-1.6008179187774658,-2.5223958492279053,9.271950721740723,0.0008130447240546346,0.007564389146864414,-0.004247576463967562
-16.425857543945312,9.085638999938965,-41.19733428955078,-1.6159478425979614,-2.526630163192749,9.260167121887207,0.00024233014846686274,0.006902776658535004,-0.0014644117327407002
-16.42793846130371,9.088777542114258,-41.19413375854492,-1.6136572360992432,-2.5268077850341797,9.246776580810547,-0.00407882034778595,0.006995909381657839,0.0019336118130013347
-16.432710647583008,9.091865539550781,-41.1888542175293,-1.6193498373031616,-2.527496337890625,9.230276107788086,-0.005615875590592623,0.005091913044452667,0.004942529369145632
-16.436342239379883,9.094000816345215,-41.181793212890625,-1.618969440460205,-2.55708646774292,9.231524467468262,-0.006952510215342045,0.0045591965317726135,0.008016266860067844
-16.440305709838867,9.096199035644531,-41.17333221435547,-1.6075055599212646,-2.578808069229126,9.236167907714844,-0.008098036050796509,0.0026391821447759867,0.010128505527973175
-16.443336486816406,9.094813346862793,-41.16408157348633,-1.6092166900634766,-2.598933458328247,9.22974681854248,-0.006818398833274841,-0.002279877895489335,0.010332652367651463
-16.44420623779297,9.088451385498047,-41.15470504760742,-1.5994962453842163,-2.628763437271118,9.234991073608398,-0.0055886805057525635,-0.00783614907413721,0.010521523654460907
-16.444408416748047,9.080042839050293,-41.144691467285156,-1.5803900957107544,-2.6381654739379883,9.239583015441895,-0.0045761470682919025,-0.010943413712084293,0.010640732944011688
-16.44473648071289,9.07133960723877,-41.13337326049805,-1.5651041269302368,-2.6291186809539795,9.24958324432373,-0.004760176409035921,-0.014244765043258667,0.011782907880842686
-16.445388793945312,9.061891555786133,-41.1214485168457,-1.542481541633606,-2.6526639461517334,9.243764877319336,-0.004462896846234798,-0.01590326614677906,0.012380444444715977
-16.445877075195312,9.052080154418945,-41.10877990722656,-1.518141269683838,-2.6583356857299805,9.24339485168457,-0.004636869300156832,-0.018092617392539978,0.012647549621760845
-16.44716453552246,9.041156768798828,-41.09711837768555,-1.5109678506851196,-2.6495447158813477,9.250203132629395,-0.005581602919846773,-0.019482525065541267,0.01253020204603672
-16.448850631713867,9.031198501586914,-41.08598327636719,-1.503339171409607,-2.6617956161499023,9.255472183227539,-0.005054660607129335,-0.017896108329296112,0.01082345936447382
-16.449434280395508,9.022552490234375,-41.07704162597656,-1.4876354932785034,-2.6666617393493652,9.25741195678711,-0.0041738152503967285,-0.017909707501530647,0.01049917284399271
-16.451385498046875,9.013774871826172,-41.06751251220703,-1.46599280834198,-2.6642093658447266,9.250412940979004,-0.007080288138240576,-0.01682266592979431,0.010041707195341587
-16.454753875732422,9.006091117858887,-41.05877685546875,-1.4603374004364014,-2.673990488052368,9.257112503051758,-0.005511939991265535,-0.015655534341931343,0.009168870747089386
-16.454755783081055,9.000612258911133,-41.050716400146484,-1.441713809967041,-2.6797876358032227,9.2510986328125,-0.0038925556000322104,-0.011646002531051636,0.00938419159501791
-16.45590591430664,8.998002052307129,-41.043365478515625,-1.4344651699066162,-2.6694531440734863,9.249554634094238,-0.005862862337380648,-0.009516999125480652,0.009156949818134308
-16.458242416381836,8.994241714477539,-41.036312103271484,-1.4262914657592773,-2.663215160369873,9.24563217163086,-0.004209579434245825,-0.009360909461975098,0.008323230780661106
-16.457508087158203,8.98994255065918,-41.03007888793945,-1.4088739156723022,-2.6447811126708984,9.25713062286377,-0.002129747997969389,-0.00766999926418066,0.00652093393728137
-16.457565307617188,8.988738059997559,-41.02651596069336,-1.3986173868179321,-2.6328988075256348,9.255125045776367,-0.0033568590879440308,-0.002988427644595504,0.005539692938327789
-16.458498001098633,8.989660263061523,-41.023834228515625,-1.4028871059417725,-2.6413350105285645,9.26391315460205,-0.0012874604435637593,-0.001897662878036499,0.00404361542314291
-16.456932067871094,8.990039825439453,-41.02279281616211,-1.4121220111846924,-2.6470112800598145,9.26066780090332,0.00023562464048154652,0.0016255307709798217,0.0014664605259895325
-16.455659866333008,8.992664337158203,-41.02375411987305,-1.4091706275939941,-2.6448943614959717,9.251327514648438,0.0007452443824149668,0.003817119402810931,0.0007556751370429993
-16.45440101623535,8.995362281799316,-41.02399444580078,-1.4134401082992554,-2.6424736976623535,9.264101028442383,0.0016191975446417928,0.005035288631916046,-0.00029988589813001454
-16.453214645385742,8.996468544006348,-41.02505874633789,-1.4102627038955688,-2.632106065750122,9.25745964050293,0.001321546733379364,0.0036979096475988626,-0.0019505618838593364
-16.454395294189453,8.996426582336426,-41.02732849121094,-1.4098502397537231,-2.6234049797058105,9.25755786895752,-0.0013057142496109009,0.004925020504742861,-0.0038325791247189045
-16.457012176513672,8.998435974121094,-41.031288146972656,-1.4158774614334106,-2.6235201358795166,9.266047477722168,-0.000940263329539448,0.006739235948771238,-0.005900486372411251
-16.457387924194336,9.001554489135742,-41.03666305541992,-1.4231517314910889,-2.632793426513672,9.272109031677246,0.00029411169816739857,0.008597411215305328,-0.007131323684006929
-16.45735740661621,9.005163192749023,-41.042415618896484,-1.4256693124771118,-2.646369695663452,9.261871337890625,0.0002441928081680089,0.009571202099323273,-0.008351728320121765
-16.457576751708984,9.008529663085938,-41.04869079589844,-1.4479588270187378,-2.6344048976898193,9.242209434509277,0.001152046024799347,0.0101676220074296,-0.008932501077651978
-16.45686912536621,9.012506484985352,-41.05475997924805,-1.469395399093628,-2.6460013389587402,9.248677253723145,0.0018866733880713582,0.01167785469442606,-0.009587034583091736
-16.455467224121094,9.016670227050781,-41.06212615966797,-1.484224557876587,-2.635589122772217,9.254984855651855,0.0035235662944614887,0.01151356939226389,-0.010907277464866638
-16.45388412475586,9.020657539367676,-41.06972885131836,-1.5045517683029175,-2.6200757026672363,9.252823829650879,0.0030791389290243387,0.013180635869503021,-0.01131109893321991
-16.452932357788086,9.025233268737793,-41.07731628417969,-1.5253938436508179,-2.6371312141418457,9.265045166015625,0.004039891064167023,0.012256021611392498,-0.011724233627319336
-16.451324462890625,9.027901649475098,-41.0833625793457,-1.5286312103271484,-2.6347506046295166,9.257661819458008,0.0033861028496176004,0.010954403318464756,-0.010272487998008728
-16.45240020751953,9.030265808105469,-41.08723068237305,-1.5426523685455322,-2.6197190284729004,9.240701675415039,-0.0003125518560409546,0.009715373627841473,-0.00853016972541809
-16.455158233642578,9.031866073608398,-41.090240478515625,-1.5604456663131714,-2.603280782699585,9.238418579101562,-0.0005356966867111623,0.007777846418321133,-0.007149576209485531
-16.455556869506836,9.034150123596191,-41.09237289428711,-1.5761021375656128,-2.5981087684631348,9.246516227722168,9.872017471934669e-06,0.00944379810243845,-0.005836412310600281
-16.455841064453125,9.038748741149902,-41.09477615356445,-1.5781790018081665,-2.602952718734741,9.253530502319336,-0.0005204231129027903,0.009781681932508945,-0.004892050288617611
-16.456636428833008,9.041522026062012,-41.09541320800781,-1.570138692855835,-2.596301555633545,9.252479553222656,-0.0007860363111831248,0.007220543920993805,-0.002640113467350602
-16.457529067993164,9.042465209960938,-41.09392547607422,-1.5672221183776855,-2.592603921890259,9.239001274108887,-0.001874566194601357,0.005918927490711212,-0.0010326504707336426
-16.45897674560547,9.044219970703125,-41.092044830322266,-1.5661216974258423,-2.599484920501709,9.244749069213867,-0.0021226711105555296,0.005845540203154087,0.0006670134025625885
-16.458858489990234,9.046116828918457,-41.08926010131836,-1.573302984237671,-2.62064790725708,9.237332344055176,-0.0003926456265617162,0.004535727668553591,0.0016229227185249329
-16.457050323486328,9.045621871948242,-41.085548400878906,-1.5693883895874023,-2.611581325531006,9.247673034667969,0.0002766028337646276,0.0012392178177833557,0.0030646102968603373
-16.455568313598633,9.042152404785156,-41.079620361328125,-1.5620753765106201,-2.6243929862976074,9.236348152160645,0.00012423844600562006,-0.0029090791940689087,0.004963390529155731
-16.45404815673828,9.036038398742676,-41.07241439819336,-1.548858404159546,-2.6242191791534424,9.240593910217285,0.0007832423434592783,-0.006893650628626347,0.004583411384373903
-16.45275115966797,9.029340744018555,-41.067108154296875,-1.5290058851242065,-2.6059718132019043,9.252564430236816,-1.7881391613627784e-05,-0.007323176134377718,0.004188902676105499
-16.452383041381836,9.025127410888672,-41.062801361083984,-1.50161874294281,-2.6254117488861084,9.251059532165527,0.0001663342263782397,-0.006113573908805847,0.0033376740757375956
-16.45269012451172,9.02270221710205,-41.05986785888672,-1.4757452011108398,-2.6386520862579346,9.257989883422852,-0.001749768853187561,-0.004316121805459261,0.003161840373650193
-16.454042434692383,9.02100658416748,-41.05622100830078,-1.4643547534942627,-2.6453304290771484,9.257599830627441,-0.0014778230106458068,-0.003662333358079195,0.002893806202337146
-16.45381736755371,9.018814086914062,-41.0537109375,-1.4538158178329468,-2.655818223953247,9.262425422668457,-0.0008162111626006663,-0.003213808173313737,0.002189166843891144
-16.45377540588379,9.016486167907715,-41.05084228515625,-1.4388465881347656,-2.640244483947754,9.254658699035645,-0.0014383347006514668,-0.003057718276977539,0.002001039916649461
-16.454511642456055,9.014542579650879,-41.04790115356445,-1.4230629205703735,-2.6426210403442383,9.258940696716309,-0.0015683475648984313,-0.002263858914375305,0.0021422281861305237
-16.45559310913086,9.01476764678955,-41.045982360839844,-1.4150539636611938,-2.63256573677063,9.259947776794434,-0.0023722650948911905,0.0012738630175590515,0.0011006371350958943
-16.456920623779297,9.017991065979004,-41.04579162597656,-1.4223748445510864,-2.6079163551330566,9.250874519348145,-0.001713633886538446,0.004294328857213259,0.0011971222702413797
-16.456302642822266,9.022282600402832,-41.04618453979492,-1.4550095796585083,-2.607142925262451,9.243302345275879,0.000332109717419371,0.006795489229261875,-6.1094768170733e-05
-16.455448150634766,9.027369499206543,-41.0472297668457,-1.4713631868362427,-2.623913049697876,9.243183135986328,-0.000324100285070017,0.009205006062984467,-0.00021867454051971436
-16.45557975769043,9.032013893127441,-41.04835510253906,-1.489161729812622,-2.6376125812530518,9.239068984985352,0.0006103888736106455,0.008509121835231781,-0.0013630838366225362
-16.45334243774414,9.032690048217773,-41.049217224121094,-1.5061540603637695,-2.6604533195495605,9.24657917022705,0.003043748438358307,0.004780478775501251,-0.0016637149965390563
-16.450334548950195,9.031229972839355,-41.0482177734375,-1.534852385520935,-2.659618377685547,9.255857467651367,0.0024938955903053284,0.0034851955715566874,-0.0010345131158828735
-16.449254989624023,9.03058910369873,-41.04691696166992,-1.5278669595718384,-2.6675608158111572,9.252877235412598,0.0019220637623220682,0.002106838161125779,-0.000488758145365864
-16.44889259338379,9.028547286987305,-41.044586181640625,-1.5184412002563477,-2.6526412963867188,9.250101089477539,0.0005042180418968201,-0.00048168012290261686,-8.121134305838495e-05
-16.45033073425293,9.025404930114746,-41.04294204711914,-1.491302490234375,-2.6277143955230713,9.25440788269043,-0.0017121435375884175,-0.00102035712916404,-0.0007078050402924418
-16.452621459960938,9.0248441696167,-41.04258728027344,-1.4868226051330566,-2.603283405303955,9.253318786621094,-0.001991539727896452,0.0019935888703912497,-0.0010311601217836142
-16.45416831970215,9.02856159210205,-41.04383850097656,-1.4782038927078247,-2.6164798736572266,9.249648094177246,-0.0021964311599731445,0.006398373749107122,-0.0017777086468413472
-16.455278396606445,9.034358024597168,-41.04591369628906,-1.4963818788528442,-2.6239984035491943,9.233159065246582,-0.001249835011549294,0.008918903768062592,-0.0018030406208708882
-16.45406150817871,9.038664817810059,-41.04692840576172,-1.5075141191482544,-2.660332679748535,9.242757797241211,0.0013409183593466878,0.007751398254185915,-0.001409277319908142
-16.4514102935791,9.040373802185059,-41.04706573486328,-1.5042818784713745,-2.6436984539031982,9.226773262023926,0.0018859285628423095,0.006538816727697849,-0.0012617559405043721
-16.44999885559082,9.040916442871094,-41.04594802856445,-1.515345811843872,-2.602626323699951,9.246587753295898,0.0015718862414360046,0.0042470176704227924,-0.0002339482743991539
-16.447921752929688,9.039505004882812,-41.04389953613281,-1.5320602655410767,-2.5877463817596436,9.25007152557373,0.0032177194952964783,0.001394934835843742,9.294599294662476e-05
-16.445293426513672,9.03696060180664,-41.04124450683594,-1.5437241792678833,-2.581333637237549,9.253546714782715,0.00213217013515532,-8.158386481227353e-05,0.0007411465048789978
-16.44574546813965,9.03416633605957,-41.03889465332031,-1.5377411842346191,-2.5726511478424072,9.246400833129883,-0.0004794448905158788,-0.0018127262592315674,6.388873589457944e-05
-16.448076248168945,9.030120849609375,-41.036903381347656,-1.5196852684020996,-2.5875847339630127,9.253212928771973,-0.002122298115864396,-0.0034477561712265015,9.257346391677856e-05
-16.448781967163086,9.026073455810547,-41.033607482910156,-1.5074111223220825,-2.5934953689575195,9.265070915222168,-0.0005848705768585205,-0.004173814784735441,0.0014925373252481222
-16.448139190673828,9.023733139038086,-41.03017044067383,-1.503571629524231,-2.603011131286621,9.259125709533691,-0.001505017396993935,-0.0023648140486329794,0.0014217568095773458
-16.45058250427246,9.024234771728516,-41.02796173095703,-1.4920475482940674,-2.6097047328948975,9.243058204650879,-0.004033744800835848,0.0005645677447319031,0.001888908795081079
-16.452613830566406,9.025833129882812,-41.025489807128906,-1.4929238557815552,-2.634375810623169,9.244354248046875,-0.0017601996660232544,0.0011960045667365193,0.0021526592317968607
-16.45045280456543,9.025742530822754,-41.02281188964844,-1.4912500381469727,-2.6362433433532715,9.248010635375977,0.0006159768090583384,0.0004073604941368103,0.002470799023285508
-16.448518753051758,9.02497386932373,-41.020137786865234,-1.4920368194580078,-2.6511826515197754,9.253280639648438,0.00021290035510901362,0.0008413568721152842,0.0016143543180078268
-16.448007583618164,9.025569915771484,-41.01900863647461,-1.5042297840118408,-2.6649930477142334,9.237958908081055,0.000864081084728241,0.0025546180550009012,0.0011844560503959656
-16.44696617126465,9.026655197143555,-41.019004821777344,-1.5088213682174683,-2.657471179962158,9.234858512878418,0.0009866432519629598,0.0025177374482154846,-0.00040084123611450195
-16.446361541748047,9.026567459106445,-41.0185432434082,-1.5147050619125366,-2.640336751937866,9.241673469543457,0.0007865951047278941,0.002368353307247162,-8.232892287196591e-05
-16.445674896240234,9.027068138122559,-41.01687240600586,-1.5302536487579346,-2.6359431743621826,9.238789558410645,0.0008376315236091614,0.0027315691113471985,0.0008204952464438975
-16.4448299407959,9.02746868133545,-41.01484298706055,-1.516291856765747,-2.6536946296691895,9.255121231079102,0.0007530674338340759,0.0018430877244099975,0.0008823351236060262
-16.44463348388672,9.026381492614746,-41.0120849609375,-1.5047993659973145,-2.636901378631592,9.253229141235352,-0.0004414469294715673,0.0002736225724220276,0.002077407669275999
-16.44561004638672,9.025102615356445,-41.008323669433594,-1.503003716468811,-2.616530656814575,9.257957458496094,-0.0016581268282607198,9.294599294662476e-05,0.002678670221939683
-16.446598052978516,9.024303436279297,-41.00468444824219,-1.5034558773040771,-2.607499361038208,9.24647331237793,-0.0015720726223662496,-0.00032894316245801747,0.0030001625418663025
-16.44759178161621,9.023914337158203,-41.00129318237305,-1.5171021223068237,-2.6023097038269043,9.243462562561035,-0.002794712781906128,0.0007810071692802012,0.0028325244784355164
-16.448728561401367,9.024892807006836,-40.99924850463867,-1.5220214128494263,-2.6240804195404053,9.234228134155273,-0.0013850630493834615,0.0021649524569511414,0.0018844380974769592
-16.44812774658203,9.024909973144531,-40.997196197509766,-1.5036712884902954,-2.6322286128997803,9.243220329284668,-0.0010155139025300741,0.00023003669048193842,0.00240374356508255
-16.44690704345703,9.021687507629395,-40.99372863769531,-1.4879300594329834,-2.615496873855591,9.24880313873291,0.0006413088412955403,-0.0027310107834637165,0.0021940104197710752
-16.44548225402832,9.01742935180664,-40.990028381347656,-1.490784764289856,-2.629277467727661,9.2564058303833,-0.0002138316776836291,-0.0032979995012283325,0.0019026921363547444
-16.445716857910156,9.015650749206543,-40.98787307739258,-1.4778531789779663,-2.6335830688476562,9.246875762939453,-0.00025182965327985585,-0.0009451061487197876,0.0011978670954704285
-16.445518493652344,9.01607894897461,-40.98673629760742,-1.4721190929412842,-2.6247925758361816,9.248000144958496,6.891787961649243e-06,0.00041779139428399503,0.0007065014215186238
-16.445125579833984,9.016316413879395,-40.98580551147461,-1.4741361141204834,-2.6012136936187744,9.250560760498047,6.519259386550402e-06,0.0010391698451712728,0.0006554648280143738
-16.444507598876953,9.015265464782715,-40.984188079833984,-1.4749205112457275,-2.616576910018921,9.261173248291016,0.000542961061000824,-0.0006351620540954173,0.00033508986234664917
-16.444246292114258,9.01344108581543,-40.98272705078125,-1.4759244918823242,-2.6119463443756104,9.259846687316895,-0.0005234033451415598,0.0005373731255531311,-0.00029616057872772217
-16.445995330810547,9.014394760131836,-40.9820442199707,-1.47914457321167,-2.60821795463562,9.266731262207031,-0.002314895624294877,0.002536363899707794,0.0006468967185355723
-16.447511672973633,9.016358375549316,-40.97968673706055,-1.4905641078948975,-2.618379831314087,9.259523391723633,-0.0014793130103498697,0.002867915201932192,0.0015018511330708861
-16.447078704833984,9.017637252807617,-40.95936584472656,-1.4826682806015015,-2.6191611289978027,9.262737274169922,-0.0009484589681960642,0.0029688701033592224,0.002581067616119981
-16.447891235351562,9.019246101379395,-40.95569610595703,-1.488060712814331,-2.6021578311920166,9.256739616394043,-0.003037229413166642,0.0033738091588020325,0.0038335099816322327
-16.451374053955078,9.021440505981445,-40.951873779296875,-1.491422414779663,-2.6034228801727295,9.247706413269043,-0.00505708297714591,0.004090555012226105,0.0038219622801989317
-16.454036712646484,9.023573875427246,-40.94918441772461,-1.5097054243087769,-2.6143038272857666,9.23537826538086,-0.003454834222793579,0.0041155144572257996,0.0035939740482717752
-16.45399284362793,9.025176048278809,-40.946815490722656,-1.5208698511123657,-2.6454885005950928,9.245649337768555,-0.0022001564502716064,0.004176237154752016,0.002666004002094269
-16.453508377075195,9.026023864746094,-40.94540786743164,-1.5261179208755493,-2.6711297035217285,9.236793518066406,-0.0009838491678237915,0.003067590994760394,0.002356060082092881
-16.451797485351562,9.02432918548584,-40.94260787963867,-1.5358854532241821,-2.6932482719421387,9.23437213897705,0.000939704361371696,-0.0004947184934280813,0.002096034586429596
-16.448400497436523,9.019607543945312,-40.93913650512695,-1.5394995212554932,-2.697237491607666,9.231522560119629,0.0029286369681358337,-0.0035505746491253376,0.0020252543035894632
-16.44586181640625,9.013715744018555,-40.934730529785156,-1.5356252193450928,-2.6475515365600586,9.245267868041992,0.0011602416634559631,-0.006391481030732393,0.0025426968932151794
-16.44618034362793,9.007619857788086,-40.93003845214844,-1.5397597551345825,-2.6269941329956055,9.24754524230957,-0.0001993030746234581,-0.0071756551042199135,0.0025311484932899475
-16.446340560913086,9.001922607421875,-40.92539596557617,-1.513593316078186,-2.6125760078430176,9.25486946105957,-0.000243261456489563,-0.008421019650995731,0.0028643757104873657
-16.446687698364258,8.996088027954102,-40.91931915283203,-1.4996031522750854,-2.5950682163238525,9.255817413330078,-0.002313777804374695,-0.008973106741905212,0.00505615072324872
-16.448375701904297,8.991612434387207,-40.91203308105469,-1.4852169752120972,-2.6016018390655518,9.252732276916504,-0.002910569543018937,-0.00787191092967987,0.0055544073693454266
-16.44853973388672,8.98974895477295,-40.90660095214844,-1.4746174812316895,-2.6185295581817627,9.263832092285156,-0.001231953501701355,-0.004291534889489412,0.005560182500630617
-16.448490142822266,8.992142677307129,-40.885215759277344,-1.4680851697921753,-2.611443042755127,9.266783714294434,-0.002689659595489502,0.001158379134722054,0.0054368749260902405
-16.45024299621582,8.995975494384766,-40.86471939086914,-1.4709419012069702,-2.609813928604126,9.242624282836914,-0.002550706034526229,0.001952611026354134,0.0054387375712394714
-16.44997787475586,8.997298240661621,-40.84369659423828,-1.4656500816345215,-2.63149094581604,9.244473457336426,-0.0006448478088714182,0.0024011353962123394,0.00408683018758893
-16.449234008789062,8.999083518981934,-40.824954986572266,-1.4650309085845947,-2.6382498741149902,9.248706817626953,-0.0010445715161040425,0.004449672996997833,0.0025717541575431824
-16.449214935302734,9.000490188598633,-40.8070068359375,-1.4780046939849854,-2.632920742034912,9.236923217773438,0.0003447756462264806,0.002870894968509674,0.000345520704286173
-16.446956634521484,8.999649047851562,-40.78935623168945,-1.4938539266586304,-2.639983654022217,9.24781608581543,0.002478249603882432,0.0027360396925359964,-7.599592208862305e-05
-16.445110321044922,8.999380111694336,-40.77141571044922,-1.4951907396316528,-2.6422948837280273,9.24177074432373,0.0008786098333075643,0.0020055107306689024,-0.0008374453755095601
-16.44532012939453,8.997126579284668,-40.771148681640625,-1.493767499923706,-2.623786687850952,9.261545181274414,0.0009955839486792684,-0.0007968395948410034,-0.0011440366506576538
-16.443679809570312,8.992451667785645,-40.76919937133789,-1.5048729181289673,-2.626976728439331,9.255880355834961,0.0022104012314230204,-0.0032976269721984863,-0.00113286089617759
-16.44270896911621,8.988302230834961,-40.76724624633789,-1.5071134567260742,-2.6194207668304443,9.256169319152832,-0.00016689301992300898,-0.002900883788242936,-0.0005111098289489746
-16.444828033447266,8.985214233398438,-40.76437759399414,-1.5013203620910645,-2.626699686050415,9.250357627868652,-0.0021129848901182413,-0.004287064075469971,0.00029150399495847523
-16.44637680053711,8.980687141418457,-40.74349594116211,-1.480703592300415,-2.6299211978912354,9.256836891174316,-0.0017683951882645488,-0.005314498208463192,0.0007653608918190002
-16.44645118713379,8.97695255279541,-40.722503662109375,-1.466072678565979,-2.622068405151367,9.248556137084961,-0.0013582410756498575,-0.004152209032326937,0.0008249656530097127
-16.446640014648438,8.975213050842285,-40.70331954956055,-1.455053448677063,-2.599255323410034,9.23477554321289,-0.0012751668691635132,-0.002361088991165161,1.3224781469034497e-05
-16.44675064086914,8.975852966308594,-40.703834533691406,-1.4499621391296387,-2.6068222522735596,9.242171287536621,-0.0002749264531303197,0.001971609890460968,-0.0012084842892363667
-16.44528579711914,8.979293823242188,-40.68800735473633,-1.4807167053222656,-2.6351637840270996,9.260063171386719,0.0020181762520223856,0.004948116838932037,-0.0022236257791519165
-16.44214630126953,8.982795715332031,-40.6732292175293,-1.4880952835083008,-2.654207229614258,9.263524055480957,0.0037966298405081034,0.006648711860179901,-0.0032309445086866617
-16.439924240112305,8.9851713180542,-40.6746940612793,-1.4935115575790405,-2.6549737453460693,9.250635147094727,0.002453290158882737,0.005594827700406313,-0.0022858381271362305
-16.439897537231445,8.98458480834961,-40.673519134521484,-1.482340693473816,-2.638788938522339,9.246404647827148,0.0010283665033057332,0.0020837411284446716,-0.0013150275917723775
-16.44068145751953,8.982170104980469,-40.67149353027344,-1.4963792562484741,-2.621457099914551,9.244405746459961,-0.0004764645709656179,0.0011743978830054402,-0.0012330712052062154
-16.441606521606445,8.980880737304688,-40.67165756225586,-1.4851562976837158,-2.6041171550750732,9.248960494995117,-0.00030323865939863026,0.0011024998966604471,-0.0018797818338498473
-16.442481994628906,8.980237007141113,-40.67231369018555,-1.4965029954910278,-2.6084144115448,9.256346702575684,-0.0015195459127426147,0.0019928435795009136,-0.0030633064452558756
-16.443998336791992,8.979668617248535,-40.67303466796875,-1.4988727569580078,-2.622821569442749,9.257624626159668,-0.0012241305084899068,0.001185201108455658,-0.002561882371082902
-16.443920135498047,8.977795600891113,-40.67265701293945,-1.498065710067749,-2.6378259658813477,9.246286392211914,-0.0004008413234259933,-9.6857562311925e-05,-0.0022135674953460693
-16.443483352661133,8.976231575012207,-40.67090606689453,-1.4908618927001953,-2.630404472351074,9.251120567321777,-0.0006247312412597239,0.0003213062882423401,2.775341818050947e-05
-16.44390106201172,8.976936340332031,-40.668128967285156,-1.493024468421936,-2.6289846897125244,9.249772071838379,-0.0013966115657240152,0.0018188729882240295,0.0012954698177054524
-16.444271087646484,8.978353500366211,-40.66497039794922,-1.4929695129394531,-2.6341519355773926,9.25623607635498,-0.0006135553703643382,0.002216733992099762,0.001648254576139152
-16.44281578063965,8.979259490966797,-40.662479400634766,-1.5073570013046265,-2.6353657245635986,9.263570785522461,0.0009605662198737264,0.002329610986635089,0.0027822337578982115
-16.442222595214844,8.981219291687012,-40.6591682434082,-1.5124502182006836,-2.644846200942993,9.253936767578125,-0.0014573333319276571,0.004181079100817442,0.003180466592311859
-16.444677352905273,8.984528541564941,-40.65667724609375,-1.523358702659607,-2.647761583328247,9.25020980834961,-0.0026695430278778076,0.004910863935947418,0.0038186090532690287
-16.446388244628906,8.987834930419922,-40.65326690673828,-1.5296486616134644,-2.6428983211517334,9.240031242370605,-0.0027537348214536905,0.0057289376854896545,0.004659407306462526
-16.44815444946289,8.991095542907715,-40.65027618408203,-1.5280113220214844,-2.627760171890259,9.239400863647461,-0.003919005393981934,0.005628727842122316,0.004196726251393557
-16.45003318786621,8.993023872375488,-40.64742660522461,-1.523173213005066,-2.6255342960357666,9.230463027954102,-0.002963840961456299,0.004424714017659426,0.004434399306774139
-16.450315475463867,8.992918968200684,-40.64369201660156,-1.5172114372253418,-2.6180312633514404,9.2330904006958,-0.002427399391308427,0.0019093976588919759,0.003476254642009735
-16.4495906829834,8.988738059997559,-40.641082763671875,-1.5065553188323975,-2.6285595893859863,9.236222267150879,-2.64495665760478e-05,-0.0032093380577862263,0.0013032929273322225
-16.446924209594727,8.981428146362305,-40.638916015625,-1.5027267932891846,-2.6257407665252686,9.257681846618652,0.0015547501388937235,-0.0057477508671581745,0.0006781891570426524
-16.445228576660156,8.97627067565918,-40.63655090332031,-1.4816906452178955,-2.5971062183380127,9.260354995727539,0.0006886199116706848,-0.004690513480454683,7.133930921554565e-05
-16.44540023803711,8.972550392150879,-40.63423156738281,-1.4827741384506226,-2.5723986625671387,9.2604341506958,-4.433095455169678e-05,-0.005738064646720886,0.00031609091092832386
-16.445159912109375,8.967569351196289,-40.61348342895508,-1.4890305995941162,-2.5891952514648438,9.256551742553711,0.00015478582645300776,-0.006431713700294495,0.0010957942577078938
-16.444137573242188,8.962754249572754,-40.59237289428711,-1.4900920391082764,-2.6228137016296387,9.26369857788086,0.0006375834345817566,-0.006414577830582857,0.00037383291055448353
-16.443363189697266,8.958439826965332,-40.57337188720703,-1.4668222665786743,-2.621112108230591,9.25131607055664,0.0003410503559280187,-0.005567446351051331,-0.0003799796977546066
-16.442771911621094,8.954720497131348,-40.55432891845703,-1.4664498567581177,-2.6200265884399414,9.26013469696045,0.0009546056389808655,-0.0051118433475494385,-0.000940263329539448
-16.442176818847656,8.951347351074219,-40.535789489746094,-1.467879295349121,-2.628115653991699,9.254654884338379,0.00010672957432689145,-0.004042312502861023,-0.0013515354366973042
-16.443395614624023,8.950406074523926,-40.51776885986328,-1.456789493560791,-2.6372995376586914,9.256102561950684,-0.001458451384678483,-0.00032931569148786366,-0.0011634082766249776
-16.444637298583984,8.953117370605469,-40.499755859375,-1.4548901319503784,-2.6553874015808105,9.26623249053955,-0.0006947667570784688,0.0033056370448321104,-0.0005193054676055908
-16.443960189819336,8.956474304199219,-40.48126220703125,-1.450570821762085,-2.66597056388855,9.252766609191895,0.00014510005712509155,0.0041445717215538025,0.00046063217450864613
-16.443710327148438,8.957659721374512,-40.46169662475586,-1.4615333080291748,-2.660917043685913,9.236054420471191,-0.0010460615158081055,0.0026093802880495787,0.0013815241400152445
-16.444780349731445,8.958061218261719,-40.44137954711914,-1.4790455102920532,-2.6625986099243164,9.23727798461914,-0.0014495104551315308,0.003455393249168992,0.0018151478143408895
-16.445018768310547,8.960514068603516,-40.422462463378906,-1.487553358078003,-2.6498475074768066,9.247453689575195,-0.0003039836883544922,0.005361997056752443,0.00041369348764419556
-16.444494247436523,8.963160514831543,-40.40525817871094,-1.4820549488067627,-2.6325154304504395,9.24875259399414,-0.0002186745114158839,0.005144811235368252,0.0006163493380881846
-16.444379806518555,8.964420318603516,-40.38677215576172,-1.4835765361785889,-2.6321630477905273,9.24984359741211,-0.00013671816850546747,0.004500336945056915,-0.00022947789693716913
-16.44397735595703,8.965841293334961,-40.36923599243164,-1.4984426498413086,-2.6349122524261475,9.247467041015625,0.0006685034022666514,0.005737133324146271,-0.0009126961231231689
-16.44277572631836,8.9688138961792,-40.35271453857422,-1.5079495906829834,-2.635209560394287,9.24502944946289,0.00150520377792418,0.006738492753356695,-0.0012546777725219727
-16.441009521484375,8.9713716506958,-40.335575103759766,-1.5267027616500854,-2.636655330657959,9.238873481750488,0.0022767113987356424,0.005945377517491579,-0.0006627291440963745
-16.43924903869629,8.971970558166504,-40.3163948059082,-1.5174306631088257,-2.6460673809051514,9.252887725830078,0.0019339844584465027,0.003763474291190505,-0.00018142163753509521
-16.438190460205078,8.969184875488281,-40.296539306640625,-1.5103516578674316,-2.6321589946746826,9.259602546691895,0.0015946106286719441,-0.0009506939677521586,-0.000286102294921875
-16.43716049194336,8.963875770568848,-40.27614212036133,-1.4969669580459595,-2.610692024230957,9.26634407043457,0.001401267945766449,-0.002903864486142993,-0.00010915102029684931
-16.437387466430664,8.961299896240234,-40.255592346191406,-1.4841694831848145,-2.608330249786377,9.259840965270996,-0.001060590147972107,-0.0013053417205810547,0.0017346817767247558
-16.43890953063965,8.961684226989746,-40.23496627807617,-1.461594581604004,-2.61418080329895,9.253336906433105,-0.0011052933987230062,-2.9802324661432067e-06,0.0018058344721794128
-16.44007682800293,8.963774681091309,-40.215171813964844,-1.4577206373214722,-2.6192362308502197,9.250720977783203,-0.0025369226932525635,0.0038163738790899515,0.002211518818512559
-16.441593170166016,8.969362258911133,-40.19661331176758,-1.448310375213623,-2.6274826526641846,9.23942756652832,-0.0014558435650542378,0.007716380059719086,0.0017078594537451863
-16.441146850585938,8.97510814666748,-40.179351806640625,-1.4467228651046753,-2.6140663623809814,9.241661071777344,-0.0002708286338020116,0.008387678302824497,0.0010857358574867249
-16.44014549255371,8.979181289672852,-40.162357330322266,-1.468129277229309,-2.604710578918457,9.248083114624023,0.0007113441824913025,0.009020977653563023,-0.0003993511199951172
-16.438045501708984,8.98256778717041,-40.146812438964844,-1.4814331531524658,-2.6151251792907715,9.255931854248047,0.00328700989484787,0.008714013732969761,-0.0025205311831086874
-16.434614181518555,8.984376907348633,-40.13181686401367,-1.48885977268219,-2.6280288696289062,9.266712188720703,0.004139729309827089,0.007208995521068573,-0.00336803519167006
-16.433435440063477,8.98434066772461,-40.11509323120117,-1.5037506818771362,-2.632721424102783,9.253334999084473,0.0014213845133781433,0.004427321255207062,-0.0025432559195905924
-16.434524536132812,8.982638359069824,-40.09762954711914,-1.5135822296142578,-2.6344470977783203,9.259916305541992,0.0006956979632377625,0.002340413862839341,-0.0030308961868286133
-16.433908462524414,8.981093406677246,-40.07991409301758,-1.5142275094985962,-2.617644786834717,9.264031410217285,0.0017607585759833455,0.0020200381986796856,-0.002093985676765442
-16.43296241760254,8.980908393859863,-40.061302185058594,-1.5266292095184326,-2.605442762374878,9.258580207824707,0.00037383291055448353,0.0022308900952339172,-0.00178329658228904
-16.434709548950195,8.980964660644531,-40.04310989379883,-1.5184578895568848,-2.6075940132141113,9.261110305786133,-0.0018522144528105855,0.0021288173738867044,-0.0011626631021499634
-16.436908721923828,8.980437278747559,-40.024234771728516,-1.5120906829833984,-2.6174511909484863,9.256943702697754,-0.001884997240267694,0.0013051554560661316,-0.001265481230802834
-16.43807029724121,8.980112075805664,-40.006290435791016,-1.5061275959014893,-2.6145472526550293,9.245216369628906,-0.0021331014577299356,0.0026328489184379578,-0.0012695789337158203
-16.439327239990234,8.982345581054688,-39.98804473876953,-1.5121757984161377,-2.59657883644104,9.231392860412598,-0.0020455571357160807,0.00481773167848587,-0.00037215652992017567
-16.44056510925293,8.986814498901367,-39.97043991088867,-1.5107674598693848,-2.6080994606018066,9.230799674987793,-0.002341344952583313,0.007696636952459812,-0.00010468067921465263
-16.44097328186035,8.991556167602539,-39.952999114990234,-1.51656174659729,-2.632542371749878,9.243128776550293,-0.00035986307193525136,0.007750280201435089,-0.0003054738335777074
-16.439016342163086,8.993265151977539,-39.934715270996094,-1.5100889205932617,-2.6449575424194336,9.24889850616455,0.0012291594175621867,0.005007348023355007,0.00026691704988479614
-16.437175750732422,8.99173355102539,-39.91474533081055,-1.5087565183639526,-2.6424975395202637,9.247536659240723,0.0009665266261436045,0.0015908852219581604,0.0006003305898047984
-16.436002731323242,8.986981391906738,-39.89440155029297,-1.510262131690979,-2.6267950534820557,9.253830909729004,0.0014783815713599324,-0.0034619125071913004,0.000385381281375885
-16.435073852539062,8.981346130371094,-39.873226165771484,-1.5104820728302002,-2.641580581665039,9.261038780212402,0.0002710148401092738,-0.003293156623840332,0.00045169147779233754
-16.435251235961914,8.979412078857422,-39.85407257080078,-1.49977445602417,-2.6288981437683105,9.257448196411133,0.0004185364523436874,-0.001664832467213273,-0.0001676380925346166
-16.435562133789062,8.976948738098145,-39.835731506347656,-1.4810619354248047,-2.608234405517578,9.241432189941406,-0.0008508563041687012,-0.003490224713459611,-0.0015761703252792358
-16.437328338623047,8.972670555114746,-39.81690979003906,-1.4823728799819946,-2.607011079788208,9.247886657714844,-0.0022333115339279175,-0.003521144390106201,-0.00010728836787166074
-16.438669204711914,8.971287727355957,-39.7968864440918,-1.486303687095642,-2.624473810195923,9.257490158081055,-0.0015996397705748677,-0.0008553266525268555,-0.0003051013045478612
-16.43895721435547,8.972684860229492,-39.77870178222656,-1.4772385358810425,-2.6225712299346924,9.258881568908691,-0.0012513247784227133,0.0020155685488134623,-0.0004138797812629491
-16.44011116027832,8.974380493164062,-39.76047134399414,-1.487962007522583,-2.6267483234405518,9.251160621643066,-0.002527982695028186,0.002227537799626589,3.911555268132361e-06
-16.441198348999023,8.974349021911621,-39.74058532714844,-1.4945589303970337,-2.6394777297973633,9.253165245056152,-0.001251325011253357,0.0011650845408439636,0.0014202670427039266
-16.439855575561523,8.974194526672363,-39.71961975097656,-1.5070503950119019,-2.6490588188171387,9.25167465209961,9.667130507295951e-05,0.0016255306545644999,0.002448819810524583
-16.43829917907715,8.974949836730957,-39.699100494384766,-1.500993013381958,-2.6447086334228516,9.248576164245605,0.0006360933184623718,0.002044253284111619,0.001829676446504891
-16.438629150390625,8.975227355957031,-39.6801643371582,-1.4912283420562744,-2.632817268371582,9.239617347717285,-0.0014726073713973165,0.001964159309864044,0.0009389594779349864
-16.43977928161621,8.97412395477295,-39.66073226928711,-1.479146957397461,-2.6253364086151123,9.242687225341797,-0.00024288894201163203,0.00014770777488593012,0.0005492940545082092
-16.438640594482422,8.972390174865723,-39.64179229736328,-1.4816943407058716,-2.616753339767456,9.250138282775879,0.00036638230085372925,0.000782869930844754,-1.9744038581848145e-05
-16.437902450561523,8.972952842712402,-39.623992919921875,-1.490000605583191,-2.6332688331604004,9.261905670166016,0.0006126240477897227,0.0027431175112724304,-0.000677257776260376
-16.437965393066406,8.975071907043457,-39.60650634765625,-1.4919121265411377,-2.6467621326446533,9.257835388183594,-0.0003229826979804784,0.0041937455534935,-0.00041164460708387196
-16.43860626220703,8.976119041442871,-39.587589263916016,-1.4861900806427002,-2.6451303958892822,9.24651050567627,-0.0005036593065597117,0.00227596634067595,0.00022780150175094604
-16.439271926879883,8.975336074829102,-39.56724548339844,-1.4918469190597534,-2.6322054862976074,9.245739936828613,-0.0016462057828903198,0.0019693749491125345,0.00109206885099411
-16.44056510925293,8.975401878356934,-39.54765701293945,-1.492762804031372,-2.6256396770477295,9.246258735656738,-0.0016894190339371562,0.0019123777747154236,0.0007627530721947551
-16.44098663330078,8.974406242370605,-39.52836608886719,-1.491403579711914,-2.613629102706909,9.262547492980957,-0.000955536961555481,0.0004665926389861852,-0.0005159527063369751
-16.441030502319336,8.971360206604004,-39.509788513183594,-1.4896522760391235,-2.6134538650512695,9.24779987335205,-0.0011090191546827555,-0.0016581269446760416,-0.00025145712425000966
-16.44105339050293,8.96735668182373,-39.489646911621094,-1.475015640258789,-2.625385284423828,9.25483512878418,-0.0004142523102927953,-0.0030022109858691692,-0.0008657575235702097
-16.43996238708496,8.964625358581543,-39.47098922729492,-1.4876078367233276,-2.6333212852478027,9.25617790222168,0.0008603557362221181,-0.001313537359237671,-0.0005435197381302714
-16.438936233520508,8.965248107910156,-39.452491760253906,-1.486843228340149,-2.628009080886841,9.25265884399414,0.00037495046854019165,0.0016396864084526896,-0.0010378656443208456
-16.43882942199707,8.967733383178711,-39.43462371826172,-1.502981185913086,-2.641939640045166,9.256073951721191,0.000659935234580189,0.0037213789764791727,-8.568167686462402e-05
-16.43852424621582,8.971504211425781,-39.41688919067383,-1.5025876760482788,-2.6279184818267822,9.251529693603516,0.0001570210006320849,0.006582029163837433,-0.00040717425872571766
-16.44057273864746,8.976009368896484,-39.39927673339844,-1.4991774559020996,-2.619663953781128,9.24581527709961,-0.0029437243938446045,0.007429905701428652,-3.352761495989398e-06
-16.444372177124023,8.977755546569824,-39.380916595458984,-1.4997127056121826,-2.6045401096343994,9.23811149597168,-0.003676116466522217,0.004344247747212648,-0.0005327165126800537
-16.445507049560547,8.976212501525879,-39.36231231689453,-1.496896743774414,-2.614663600921631,9.247147560119629,-0.0015284866094589233,0.00253971666097641,-0.00041276219417341053
-16.445247650146484,8.975568771362305,-39.34333038330078,-1.4861170053482056,-2.6147966384887695,9.2511568069458,-0.002032145857810974,0.0026365744415670633,-0.00020191073417663574
-16.445924758911133,8.975058555603027,-39.32404327392578,-1.4769418239593506,-2.6157398223876953,9.265192031860352,-0.001142546534538269,0.0007187948212958872,0.0005738810286857188
-16.445337295532227,8.972492218017578,-39.30387496948242,-1.4757468700408936,-2.612602710723877,9.259594917297363,-0.0004980713711120188,-0.0009819865226745605,-0.00011324884690111503
-16.444610595703125,8.970176696777344,-39.28423309326172,-1.4969816207885742,-2.6232492923736572,9.25474739074707,0.00021141023898962885,-0.00039003792335279286,0.0002076849341392517
-16.443307876586914,8.97020435333252,-39.264625549316406,-1.4858458042144775,-2.65358304977417,9.237665176391602,0.0010469929547980428,0.0010555610060691833,0.0009486452327109873
-16.442163467407227,8.970605850219727,-39.24515914916992,-1.4869587421417236,-2.6384706497192383,9.234814643859863,0.0007214024662971497,0.0009508804068900645,0.0003503635816741735
-16.442365646362305,8.968432426452637,-39.226139068603516,-1.4901039600372314,-2.6064229011535645,9.238805770874023,-0.00037886202335357666,-0.0016439707251265645,-0.00013187527656555176
-16.44270133972168,8.964997291564941,-39.20652389526367,-1.5083730220794678,-2.6077146530151367,9.253894805908203,0.00010561198723735288,-0.0013738871784880757,-0.0006102025508880615
-16.44270133972168,8.964301109313965,-39.188777923583984,-1.5030922889709473,-2.613823890686035,9.267563819885254,-0.0005573034286499023,0.0009352341876365244,-0.0012520700693130493
-16.444538116455078,8.964664459228516,-39.17137145996094,-1.4903608560562134,-2.6131575107574463,9.254096984863281,-0.002416969044134021,0.0010369345545768738,-0.0018317254725843668
-16.447101593017578,8.965091705322266,-39.15370559692383,-1.4796018600463867,-2.628941059112549,9.257875442504883,-0.002546608680859208,0.0032430514693260193,-0.001446530339308083
-16.44799041748047,8.967423439025879,-39.13602828979492,-1.4628684520721436,-2.627115249633789,9.254768371582031,-0.001383945345878601,0.004285387694835663,-0.0013463200302794576
-16.448575973510742,8.970905303955078,-39.119049072265625,-1.468179702758789,-2.6217117309570312,9.252157211303711,-0.0019147993298247457,0.007777847349643707,-0.0018272550078108907
-16.450490951538086,8.97657299041748,-39.10331726074219,-1.4736794233322144,-2.62983775138855,9.256020545959473,-0.0022303315345197916,0.009539909660816193,-0.0019915401935577393
-16.450786590576172,8.980677604675293,-39.08807373046875,-1.4679170846939087,-2.6534903049468994,9.254404067993164,0.0004863366484642029,0.008860417641699314,-0.003807246685028076
-16.44942855834961,8.983552932739258,-39.073665618896484,-1.4782713651657104,-2.673546314239502,9.240690231323242,0.0005735084996558726,0.009663590230047703,-0.004242733120918274
-16.449939727783203,8.985377311706543,-39.05867004394531,-1.4808565378189087,-2.634936571121216,9.225343704223633,-0.00019781292940024287,0.006169639527797699,-0.00520534859970212
-16.449237823486328,8.981557846069336,-39.042850494384766,-1.4949771165847778,-2.6179285049438477,9.239212989807129,0.0025259333197027445,0.0005265697836875916,-0.00583454966545105
-16.446109771728516,8.975445747375488,-39.027008056640625,-1.498645305633545,-2.6076242923736572,9.255356788635254,0.0033183025661855936,-0.0010624525602906942,-0.007665902841836214
-16.444782257080078,8.969868659973145,-39.01396179199219,-1.4807562828063965,-2.5930323600769043,9.255751609802246,0.0028634443879127502,-0.0028308480978012085,-0.010880828835070133
-16.444774627685547,8.962495803833008,-39.00337219238281,-1.4655331373214722,-2.587556838989258,9.262476921081543,0.002388842636719346,-0.004637613892555237,-0.013884157873690128
-16.443485260009766,8.955310821533203,-38.993473052978516,-1.4406607151031494,-2.6255640983581543,9.27023696899414,0.0048777093179523945,-0.0038590282201766968,-0.01548193208873272
-16.43915367126465,8.951518058776855,-38.9841423034668,-1.4289907217025757,-2.6944797039031982,9.286287307739258,0.0073650856502354145,-0.0004909932613372803,-0.016031788662075996
-16.43466567993164,8.951761245727539,-38.97600555419922,-1.4142825603485107,-2.786482572555542,9.271265983581543,0.008023902773857117,0.0043120235204696655,-0.017286093905568123
-16.433889389038086,8.954090118408203,-38.968624114990234,-1.3814607858657837,-2.790987491607666,9.230602264404297,0.003534369170665741,0.006712042260915041,-0.016717612743377686
-16.435302734375,8.955313682556152,-38.95999526977539,-1.3664571046829224,-2.787051200866699,9.228384017944336,0.004574843216687441,0.006707572378218174,-0.017189979553222656
-16.432294845581055,8.957525253295898,-38.95240020751953,-1.3469789028167725,-2.783397912979126,9.234282493591309,0.0071840351447463036,0.011507979594171047,-0.01813843473792076
-16.427982330322266,8.964949607849121,-38.949222564697266,-1.3287478685379028,-2.7281856536865234,9.236075401306152,0.008890591561794281,0.017239712178707123,-0.021242724731564522
-16.425464630126953,8.975132942199707,-38.94963073730469,-1.3525066375732422,-2.6625595092773438,9.220759391784668,0.007658265996724367,0.02268608659505844,-0.023730846121907234
-16.424402236938477,8.989008903503418,-38.951210021972656,-1.4058749675750732,-2.64939022064209,9.224470138549805,0.008367933332920074,0.029723534360527992,-0.02437383122742176
-16.41956329345703,9.007030487060547,-38.95221710205078,-1.4770066738128662,-2.6897246837615967,9.272652626037598,0.013039447367191315,0.03507119044661522,-0.024150684475898743
-16.41280174255371,9.025961875915527,-38.95021057128906,-1.5217691659927368,-2.723217725753784,9.280122756958008,0.011444651521742344,0.036493878811597824,-0.01853927969932556
-16.411659240722656,9.043702125549316,-38.939334869384766,-1.5256444215774536,-2.7552778720855713,9.254088401794434,0.005711429752409458,0.03448222950100899,-0.011188166216015816
-16.41398048400879,9.057783126831055,-38.92263412475586,-1.537280559539795,-2.776597738265991,9.270122528076172,0.002052448922768235,0.028694234788417816,-0.004163756966590881
-16.415748596191406,9.069275856018066,-38.90203094482422,-1.5712873935699463,-2.8101043701171875,9.269794464111328,-0.00022687017917633057,0.026034751906991005,0.001983530819416046
-16.417173385620117,9.08184814453125,-38.8802375793457,-1.5941001176834106,-2.805307388305664,9.246976852416992,-0.0011678782757371664,0.024431385099887848,0.004363246727734804
-16.41849708557129,9.0931978225708,-38.860477447509766,-1.6156471967697144,-2.745481252670288,9.2009859085083,-0.0017296525184065104,0.02241227962076664,0.0038327653892338276
-16.41992950439453,9.103736877441406,-38.843143463134766,-1.601737380027771,-2.6870508193969727,9.18687629699707,-0.001800805446691811,0.022325478494167328,0.003507174551486969
-16.419700622558594,9.118118286132812,-38.82667541503906,-1.6029413938522339,-2.675063133239746,9.198442459106445,0.0009240583167411387,0.027375109493732452,0.0032210724893957376
-16.415203094482422,9.137924194335938,-38.81201934814453,-1.6143269538879395,-2.673607587814331,9.219534873962402,0.006013921461999416,0.03206859529018402,0.0033615154679864645
-16.40921974182129,9.158095359802246,-38.79641342163086,-1.6291446685791016,-2.6522934436798096,9.210721015930176,0.00629518274217844,0.03310386463999748,0.002822093665599823
-16.408103942871094,9.171405792236328,-38.78241729736328,-1.6202681064605713,-2.5806467533111572,9.193334579467773,0.002858974039554596,0.025736356154084206,-0.0014007092686370015
-16.409475326538086,9.171680450439453,-38.77060317993164,-1.609244704246521,-2.4758219718933105,9.219072341918945,0.002872012322768569,0.013413466513156891,-0.007944182492792606
-16.40865707397461,9.162252426147461,-38.76122283935547,-1.6005843877792358,-2.399569272994995,9.232282638549805,0.0039650131948292255,0.0033875934313982725,-0.014650451019406319
-16.408716201782227,9.147058486938477,-38.755496978759766,-1.5520416498184204,-2.3231723308563232,9.229009628295898,0.00225286977365613,-0.006946922745555639,-0.02285502851009369
-16.40982437133789,9.124696731567383,-38.753501892089844,-1.4876656532287598,-2.2713801860809326,9.251870155334473,0.004330463707447052,-0.016704948619008064,-0.031450022011995316
-16.40471076965332,9.098196029663086,-38.75522232055664,-1.4454329013824463,-2.308587074279785,9.30616569519043,0.012435205280780792,-0.02234615571796894,-0.03943108022212982
-16.394908905029297,9.078370094299316,-38.7610969543457,-1.4136888980865479,-2.4342849254608154,9.305093765258789,0.015742147341370583,-0.01322664599865675,-0.04379824548959732
-16.392990112304688,9.074126243591309,-38.768714904785156,-1.3895033597946167,-2.52602481842041,9.258105278015137,0.007175469305366278,-0.0012088567018508911,-0.042055923491716385
-16.401336669921875,9.075475692749023,-38.77091979980469,-1.3927432298660278,-2.5586884021759033,9.255023956298828,-8.791685104370117e-05,0.0031264505814760923,-0.038209933787584305
-16.40911293029785,9.076665878295898,-38.769832611083984,-1.413322925567627,-2.5662851333618164,9.305222511291504,-0.0013574959011748433,0.0088496133685112,-0.03459006920456886
-16.4132080078125,9.082799911499023,-38.76853942871094,-1.4277396202087402,-2.4870927333831787,9.324518203735352,-0.001035630819387734,0.015540980733931065,-0.031197071075439453
-16.41937828063965,9.091620445251465,-38.76676940917969,-1.4605220556259155,-2.4085440635681152,9.321188926696777,-0.006379187107086182,0.01885686255991459,-0.02895146608352661
-16.431804656982422,9.10171890258789,-38.76286315917969,-1.5029951333999634,-2.4591126441955566,9.279237747192383,-0.012044236063957214,0.023662487044930458,-0.024648012593388557
-16.447315216064453,9.118675231933594,-38.75712203979492,-1.5432634353637695,-2.527113199234009,9.232816696166992,-0.017500298097729683,0.032938458025455475,-0.02091229148209095
-16.463659286499023,9.142108917236328,-38.75062942504883,-1.5568007230758667,-2.560661554336548,9.203214645385742,-0.019499287009239197,0.038724206387996674,-0.015169755555689335
-16.4761905670166,9.164114952087402,-38.74032974243164,-1.563246488571167,-2.609408140182495,9.21241569519043,-0.017512589693069458,0.03764760121703148,-0.01043267548084259
-16.482181549072266,9.18116569519043,-38.72562789916992,-1.5827380418777466,-2.6448185443878174,9.237822532653809,-0.011168421246111393,0.03433097153902054,-0.0055771321058273315
-16.483327865600586,9.195384979248047,-38.707191467285156,-1.6152034997940063,-2.6786468029022217,9.26168155670166,-0.00811703596264124,0.02998020499944687,-0.0008258969173766673
-16.485031127929688,9.205703735351562,-38.68055725097656,-1.6408205032348633,-2.7248594760894775,9.258869171142578,-0.006906688213348389,0.02253744751214981,0.003908761311322451
-16.487375259399414,9.213062286376953,-38.65446853637695,-1.6505833864212036,-2.7596945762634277,9.232327461242676,-0.007295609917491674,0.018722377717494965,0.00905450526624918
-16.491113662719727,9.221845626831055,-38.62501907348633,-1.6185479164123535,-2.7751235961914062,9.193175315856934,-0.00875666830688715,0.016356073319911957,0.013101287186145782
-16.493032455444336,9.22877025604248,-38.59408187866211,-1.5610277652740479,-2.7647600173950195,9.195793151855469,-0.0049401079304516315,0.011056847870349884,0.01582559384405613
-16.48996925354004,9.23252010345459,-38.56257629394531,-1.5017635822296143,-2.7361347675323486,9.19045352935791,-0.0013612210750579834,0.008960256353020668,0.014585818164050579
-16.48905372619629,9.236554145812988,-38.53871536254883,-1.4572893381118774,-2.68707537651062,9.172584533691406,-0.0032939016819000244,0.008947961963713169,0.00951383262872696
-16.494131088256836,9.238807678222656,-38.516502380371094,-1.418819785118103,-2.6978275775909424,9.175443649291992,-0.006677955389022827,0.006649457383900881,0.0031175098847597837
-16.500751495361328,9.236809730529785,-38.5018196105957,-1.370367169380188,-2.7808752059936523,9.217201232910156,-0.006522239651530981,0.004263035953044891,-0.00588707672432065
-16.50448989868164,9.23517894744873,-38.49701690673828,-1.2888705730438232,-2.819911479949951,9.263179779052734,-0.002847984666004777,0.008740835823118687,-0.01590549945831299
-16.507545471191406,9.241021156311035,-38.49729919433594,-1.2128061056137085,-2.7885289192199707,9.276230812072754,-0.0027220696210861206,0.018700772896409035,-0.02564266324043274
-16.5147705078125,9.256834983825684,-38.507137298583984,-1.1644178628921509,-2.726447105407715,9.270500183105469,-0.004194304812699556,0.03381669521331787,-0.03413073718547821
-16.52668571472168,9.285122871398926,-38.52571105957031,-1.12244713306427,-2.6087381839752197,9.258469581604004,-0.008245930075645447,0.05391668900847435,-0.04391185939311981
-16.543216705322266,9.323871612548828,-38.55388259887695,-1.1277436017990112,-2.529052734375,9.267308235168457,-0.01085959654301405,0.07137341052293777,-0.05394072085618973
-16.56017303466797,9.364721298217773,-38.59235763549805,-1.143493890762329,-2.4978387355804443,9.277215003967285,-0.010782483033835888,0.08133333921432495,-0.06530957669019699
-16.578147888183594,9.399609565734863,-38.6329231262207,-1.1252143383026123,-2.4435670375823975,9.281360626220703,-0.013177471235394478,0.08241593092679977,-0.07877203077077866
-16.60139274597168,9.426921844482422,-38.68632507324219,-1.1044057607650757,-2.380280017852783,9.256141662597656,-0.017139311879873276,0.08330885320901871,-0.09603424370288849
-16.62882423400879,9.456547737121582,-38.747764587402344,-1.073204755783081,-2.361943244934082,9.254459381103516,-0.019216913729906082,0.09364691376686096,-0.11192860454320908
-16.657318115234375,9.499329566955566,-38.824134826660156,-1.072108507156372,-2.3554773330688477,9.28064250946045,-0.01935698464512825,0.11227970570325851,-0.12671279907226562
-16.688344955444336,9.554551124572754,-38.90656280517578,-1.1373790502548218,-2.351921796798706,9.310077667236328,-0.022789467126131058,0.12956582009792328,-0.13732130825519562
-16.725793838500977,9.618293762207031,-38.98829650878906,-1.2802674770355225,-2.388049602508545,9.321613311767578,-0.029666729271411896,0.14670588076114655,-0.14175811409950256
-16.772029876708984,9.693073272705078,-39.07272720336914,-1.4189144372940063,-2.459105968475342,9.362493515014648,-0.04182161018252373,0.1645287722349167,-0.13940858840942383
-16.826499938964844,9.776681900024414,-39.14491271972656,-1.5123982429504395,-2.5471084117889404,9.39337158203125,-0.052266575396060944,0.17606379091739655,-0.1326039731502533
-16.888572692871094,9.861422538757324,-39.20846176147461,-1.5737931728363037,-2.530851125717163,9.339701652526855,-0.06916115432977676,0.18069076538085938,-0.12415537238121033
-16.965055465698242,9.937448501586914,-39.265132904052734,-1.6206190586090088,-2.433367967605591,9.230681419372559,-0.09051302820444107,0.16842207312583923,-0.11420252174139023
-17.055234909057617,9.991860389709473,-39.294551849365234,-1.6862945556640625,-2.3565475940704346,9.145263671875,-0.11266881227493286,0.14470425248146057,-0.11096189171075821
-17.156286239624023,10.030959129333496,-39.341041564941406,-1.7769198417663574,-2.3126540184020996,9.184770584106445,-0.13004769384860992,0.13194328546524048,-0.11583086103200912
-17.264759063720703,10.075262069702148,-39.392276763916016,-1.9177989959716797,-2.224536657333374,9.292792320251465,-0.14443659782409668,0.13525693118572235,-0.12238288670778275
-17.387096405029297,10.136225700378418,-39.451744079589844,-2.1016995906829834,-2.0968568325042725,9.498832702636719,-0.16840480268001556,0.15226104855537415,-0.12810979783535004
-17.545047760009766,10.23271656036377,-39.52579116821289,-2.2272698879241943,-1.9565023183822632,9.573145866394043,-0.2149445116519928,0.20773214101791382,-0.14070577919483185
-17.740100860595703,10.37426471710205,-39.63033676147461,-2.3110480308532715,-1.8310099840164185,9.458024024963379,-0.24534031748771667,0.26348647475242615,-0.168516606092453
-17.957820892333984,10.546921730041504,-39.77946090698242,-2.504579782485962,-1.6527023315429688,9.682788848876953,-0.284986287355423,0.34096086025238037,-0.2148975133895874
-18.22709846496582,10.773231506347656,-39.99690628051758,-2.552156448364258,-1.3265089988708496,9.72923755645752,-0.34428882598876953,0.44256648421287537,-0.2678375840187073
-18.573104858398438,11.018815994262695,-40.26177978515625,-2.5720748901367188,-0.8458024859428406,9.941263198852539,-0.4401223659515381,0.4789580702781677,-0.3288287818431854
-19.025585174560547,11.223207473754883,-40.529388427734375,-2.6049294471740723,-0.8310472369194031,10.74547290802002,-0.5891317129135132,0.47648146748542786,-0.33220815658569336
-19.606653213500977,11.393935203552246,-40.72938537597656,-2.6065874099731445,-0.7371476888656616,10.070998191833496,-0.7806679010391235,0.42732563614845276,-0.298368901014328
-20.245052337646484,11.535187721252441,-40.866294860839844,-3.0940451622009277,-0.536206066608429,9.426050186157227,-0.8618186116218567,0.3878471851348877,-0.23281438648700714
-20.829591751098633,11.681722640991211,-40.91048812866211,-3.6138904094696045,-0.8863518834114075,9.313339233398438,-0.9041717052459717,0.34256356954574585,-0.13534070551395416
-21.392282485961914,11.873833656311035,-40.919342041015625,-4.034424781799316,-1.100939393043518,9.47071647644043,-0.9196898937225342,0.3967330753803253,-0.06618639826774597
-21.96452522277832,12.13733196258545,-40.96973419189453,-4.302550792694092,-1.1846137046813965,9.325948715209961,-0.9513183236122131,0.4320415258407593,-0.04049818217754364
-22.541242599487305,12.372563362121582,-41.027183532714844,-5.1883320808410645,-0.9781214594841003,9.237373352050781,-0.9416952133178711,0.40594014525413513,-0.015073707327246666
-23.055917739868164,12.530235290527344,-41.063480377197266,-6.0965070724487305,-0.6916723847389221,9.08604907989502,-0.8827177882194519,0.32735756039619446,-0.02668137103319168
-23.487607955932617,12.471718788146973,-41.03462600708008,-5.731031894683838,-0.681131899356842,8.9706392288208,-0.8131899237632751,-0.01342151127755642,-0.029134085401892662
-23.880977630615234,12.10450553894043,-40.86954879760742,-4.6819891929626465,-0.9911513924598694,9.278060913085938,-0.8089002370834351,-0.339942067861557,-0.032708536833524704
-24.325687408447266,11.6734037399292,-40.7014274597168,-3.360980272293091,-1.3913899660110474,9.266142845153809,-0.8393867015838623,-0.4708099663257599,-0.04871729761362076
-24.790565490722656,11.286293983459473,-40.57587814331055,-2.0939524173736572,-2.0652058124542236,8.948041915893555,-0.8234630823135376,-0.5674135684967041,-0.0774792805314064
-25.247190475463867,10.90636157989502,-40.47124481201172,-0.9544194936752319,-2.9119467735290527,8.942482948303223,-0.8473459482192993,-0.5756098628044128,-0.09562638401985168
-25.765684127807617,10.640433311462402,-40.42219543457031,-0.004512454383075237,-3.5102076530456543,9.02896785736084,-0.8971304893493652,-0.44368883967399597,-0.11068295687437057
-26.352313995361328,10.5745210647583,-40.479248046875,0.47964364290237427,-3.74059796333313,9.039484024047852,-0.95579594373703,-0.189267098903656,-0.13003699481487274
-27.00592803955078,10.688993453979492,-40.64310073852539,0.2432587742805481,-4.447903633117676,8.818967819213867,-1.029350757598877,0.05273525416851044,-0.1497778445482254
-27.71092987060547,10.844259262084961,-40.84026336669922,-0.43681660294532776,-5.216568946838379,8.70296859741211,-1.0927026271820068,0.15635032951831818,-0.1630355715751648
-28.43234634399414,10.910893440246582,-41.00513458251953,-0.9622043967247009,-5.512141227722168,8.512469291687012,-1.1420413255691528,0.13415497541427612,-0.18506118655204773
-29.16012954711914,10.88350772857666,-41.15612030029297,-1.1564942598342896,-5.677608966827393,8.354305267333984,-1.1720941066741943,0.10678962618112564,-0.22850358486175537
-29.90159797668457,10.803200721740723,-41.32307434082031,-1.0429972410202026,-5.845770835876465,8.316821098327637,-1.2103538513183594,0.04763391613960266,-0.2751465141773224
-30.684682846069336,10.677048683166504,-41.48884582519531,-1.0381672382354736,-6.13834285736084,8.092347145080566,-1.2758371829986572,0.013551398180425167,-0.3095667362213135
-31.514680862426758,10.553647994995117,-41.66516876220703,-1.2682687044143677,-6.447569847106934,7.994490623474121,-1.3275535106658936,0.007440393324941397,-0.3359805643558502
-32.34404754638672,10.441094398498535,-41.85546875,-1.575663685798645,-6.835249900817871,8.143749237060547,-1.3361660242080688,0.013790203258395195,-0.35553672909736633
-33.16577911376953,10.299068450927734,-42.027252197265625,-1.8233755826950073,-6.883193016052246,8.022343635559082,-1.3724093437194824,-0.053692691028118134,-0.36371883749961853
-34.02051544189453,10.086372375488281,-42.14712905883789,-1.82893967628479,-6.611601829528809,7.793005466461182,-1.4197700023651123,-0.1257859319448471,-0.36791372299194336
-34.905635833740234,9.830534934997559,-42.23405075073242,-1.680238962173462,-6.401482105255127,7.994838237762451,-1.4724843502044678,-0.20927824079990387,-0.37072423100471497
-35.8291130065918,9.544867515563965,-42.29533767700195,-1.5112814903259277,-6.371845245361328,7.912491321563721,-1.542393445968628,-0.2597945034503937,-0.3704017400741577
-36.799129486083984,9.29982852935791,-42.37751388549805,-1.3766720294952393,-6.477512359619141,7.731424808502197,-1.600723385810852,-0.20781658589839935,-0.36729133129119873
-37.7974853515625,9.130375862121582,-42.501861572265625,-1.295565128326416,-6.655524730682373,7.744655132293701,-1.6496950387954712,-0.154868483543396,-0.35551801323890686
-38.8150520324707,8.99761962890625,-42.631526947021484,-1.4266321659088135,-6.7429633140563965,7.578311920166016,-1.6917117834091187,-0.09347203373908997,-0.3335174322128296
-39.83822250366211,8.90057373046875,-42.7637825012207,-1.6341743469238281,-6.8210296630859375,7.356418609619141,-1.7081632614135742,-0.0448247529566288,-0.30877310037612915
-40.84226608276367,8.817959785461426,-42.891319274902344,-1.7622301578521729,-6.931964874267578,7.209249019622803,-1.7020412683486938,-0.013192162849009037,-0.28822410106658936
-41.82203674316406,8.72468376159668,-43.003562927246094,-1.8134520053863525,-7.058025360107422,7.103029727935791,-1.6867270469665527,-0.02332749404013157,-0.27538442611694336
-42.786293029785156,8.600539207458496,-43.08966827392578,-1.7193238735198975,-7.197576522827148,6.914501667022705,-1.6763116121292114,-0.0477885976433754,-0.26901721954345703
-43.75476837158203,8.448594093322754,-43.15281295776367,-1.3160940408706665,-7.322933673858643,6.809735298156738,-1.685111165046692,-0.09181424975395203,-0.2674970328807831
-44.73752212524414,8.269603729248047,-43.19521713256836,-0.9761087894439697,-7.375843048095703,6.735513210296631,-1.6964948177337646,-0.1266360878944397,-0.2712629735469818
-45.72999954223633,8.082080841064453,-43.24432373046875,-0.49276798963546753,-7.3427653312683105,6.699654579162598,-1.7093369960784912,-0.13353286683559418,-0.28797489404678345
-46.7420654296875,7.899447917938232,-43.318824768066406,-0.2555775046348572,-7.402087211608887,6.621555805206299,-1.7360140085220337,-0.11903612315654755,-0.30323177576065063
-47.780029296875,7.728670120239258,-43.41826248168945,-0.10557004809379578,-7.478996276855469,6.344714641571045,-1.761709213256836,-0.08877298980951309,-0.32173675298690796
-48.828311920166016,7.573206901550293,-43.54784393310547,-0.11535723507404327,-7.593479156494141,6.187737464904785,-1.7740720510482788,-0.04174170270562172,-0.33512789011001587
-49.88139724731445,7.426116466522217,-43.69553756713867,-0.10278790444135666,-7.845162391662598,6.096248149871826,-1.7921315431594849,-0.01852351799607277,-0.3503948748111725
-50.94285583496094,7.2619709968566895,-43.83320236206055,-0.2321213185787201,-8.085860252380371,5.758999347686768,-1.8041267395019531,-0.0202703345566988,-0.3590645492076874
-52.00690841674805,7.098383903503418,-43.98133850097656,-0.30390751361846924,-8.207025527954102,5.560603141784668,-1.813259243965149,0.026608824729919434,-0.3752400577068329
-53.08620834350586,6.947242736816406,-44.168399810791016,-0.2863859236240387,-8.21174430847168,5.2876458168029785,-1.8347694873809814,0.05174635350704193,-0.3928019106388092
-54.1733283996582,6.791768550872803,-44.363182067871094,-0.3838008642196655,-8.247196197509766,5.102865695953369,-1.8354120254516602,0.08758566528558731,-0.40279924869537354
-55.25188064575195,6.646673679351807,-44.57326889038086,-0.6119073033332825,-8.385418891906738,5.060029983520508,-1.8389960527420044,0.1171332448720932,-0.4091923236846924
-56.33635711669922,6.497011661529541,-44.777042388916016,-0.9543062448501587,-8.572587013244629,4.922986030578613,-1.8485767841339111,0.11797148734331131,-0.4100913405418396
-57.43135070800781,6.3473734855651855,-44.979698181152344,-1.2391058206558228,-8.737879753112793,4.88035249710083,-1.862313151359558,0.15328817069530487,-0.4106583595275879
-58.53886032104492,6.1950860023498535,-45.18511199951172,-1.3010121583938599,-8.90695858001709,4.500357151031494,-1.8801270723342896,0.12841367721557617,-0.41576042771339417
-59.64900588989258,6.012925148010254,-45.354434967041016,-1.3448790311813354,-8.997528076171875,4.040891170501709,-1.8888397216796875,0.1159762516617775,-0.4183920919895172
-60.75215148925781,5.828454971313477,-45.52256393432617,-1.437117576599121,-8.94354248046875,3.9672672748565674,-1.8867650032043457,0.10797420889139175,-0.4220518469810486
-61.84938430786133,5.650577068328857,-45.7055778503418,-1.5041307210922241,-8.91246223449707,3.922844648361206,-1.8854953050613403,0.1398129016160965,-0.4217038154602051
-62.97055435180664,5.476782321929932,-45.90056610107422,-1.3720557689666748,-9.096281051635742,3.6164867877960205,-1.9250727891921997,0.1301928162574768,-0.4280175268650055
-64.1264877319336,5.294434070587158,-46.079837799072266,-1.3110287189483643,-9.196131706237793,3.332636594772339,-1.9488208293914795,0.14903627336025238,-0.41759374737739563
-65.29139709472656,5.144865036010742,-46.30506134033203,-1.2848939895629883,-9.251380920410156,2.9473202228546143,-1.9736168384552002,0.22636686265468597,-0.4150163531303406
-66.45844268798828,5.029018878936768,-46.63682174682617,-1.302509069442749,-9.292587280273438,3.1104736328125,-1.9602328538894653,0.3689362704753876,-0.4264507293701172
-67.63381958007812,4.923102378845215,-47.04720687866211,-1.2159711122512817,-9.298233032226562,2.867546319961548,-2.0016074180603027,0.44409164786338806,-0.44349348545074463
-68.8458023071289,4.790318965911865,-47.43442153930664,-1.149635910987854,-9.512763023376465,2.3634285926818848,-2.0162975788116455,0.46619653701782227,-0.45114439725875854
-70.0508041381836,4.635481357574463,-47.76664733886719,-1.000773549079895,-9.742213249206543,1.7916321754455566,-2.040753126144409,0.4260842800140381,-0.4497077763080597
-71.27338409423828,4.459272861480713,-48.03136444091797,-0.7646949887275696,-9.763531684875488,1.4223542213439941,-2.073086738586426,0.37513887882232666,-0.4429638683795929
-72.5047607421875,4.271827697753906,-48.25688552856445,-0.5110175013542175,-9.592119216918945,1.5381786823272705,-2.087294816970825,0.32482343912124634,-0.4380103051662445
-73.74110412597656,4.079544544219971,-48.459442138671875,-0.45606377720832825,-9.620502471923828,1.5086349248886108,-2.1182785034179688,0.29263725876808167,-0.42693009972572327
-74.97960662841797,3.8866770267486572,-48.671363830566406,-0.017719702795147896,-9.783576011657715,1.390197515487671,-2.1049892902374268,0.29951679706573486,-0.4338122308254242
-76.1713638305664,3.6743593215942383,-48.8991813659668,0.08071296662092209,-9.583992958068848,1.5606250762939453,-2.0669379234313965,0.28675907850265503,-0.45184800028800964
-77.32609558105469,3.4373390674591064,-49.140995025634766,0.022837834432721138,-9.318925857543945,1.5790724754333496,-2.027357339859009,0.32891160249710083,-0.4815232455730438
-78.44183349609375,3.178286075592041,-49.42548751831055,-0.008027685806155205,-9.131181716918945,1.9314395189285278,-1.9578818082809448,0.34824419021606445,-0.5190631151199341
-79.49024963378906,2.889373779296875,-49.65769577026367,-0.23003476858139038,-8.912970542907715,1.943871021270752,-1.8777109384536743,0.2813118100166321,-0.5366714596748352
-80.48760223388672,2.5955653190612793,-49.84029769897461,-0.5716559290885925,-8.83385944366455,2.002861261367798,-1.8062881231307983,0.2918848693370819,-0.5413073301315308
-81.46564483642578,2.3158035278320312,-50.04035186767578,-0.5587881207466125,-8.84080982208252,1.932611346244812,-1.763261318206787,0.25855961441993713,-0.5337210893630981
-82.44735717773438,2.045835494995117,-50.18830871582031,-0.6981563568115234,-8.937101364135742,1.776390552520752,-1.7467741966247559,0.2248670905828476,-0.5098645091056824
-83.4268569946289,1.7983356714248657,-50.33491516113281,-0.7209354043006897,-8.909003257751465,1.81584894657135,-1.7175581455230713,0.23706300556659698,-0.48348140716552734
-84.37955474853516,1.5672134160995483,-50.47531509399414,-0.7492623925209045,-8.918083190917969,1.7466803789138794,-1.6844592094421387,0.19125083088874817,-0.45463356375694275
-85.29839324951172,1.3513517379760742,-50.589115142822266,-0.9023343920707703,-9.094477653503418,1.523993968963623,-1.6319267749786377,0.21239273250102997,-0.4211331009864807
-86.16560363769531,1.1572151184082031,-50.71754455566406,-1.0869038105010986,-9.124860763549805,1.3180683851242065,-1.560813069343567,0.17982637882232666,-0.38954854011535645
-86.97806549072266,0.9744913578033447,-50.792476654052734,-1.2860357761383057,-9.166386604309082,1.1957268714904785,-1.4867631196975708,0.1464211642742157,-0.3576146066188812
-87.72394561767578,0.8106167316436768,-50.86692428588867,-1.1330546140670776,-8.829911231994629,1.2438719272613525,-1.3739280700683594,0.15232819318771362,-0.32356879115104675
-88.36906433105469,0.6570324897766113,-50.96273422241211,-0.77977055311203,-8.79926586151123,1.7009742259979248,-1.2364782094955444,0.15422266721725464,-0.30880001187324524
-88.90201568603516,0.4934326112270355,-51.08905029296875,-0.26139000058174133,-9.153754234313965,1.3283770084381104,-1.0653510093688965,0.2130965143442154,-0.3066541254520416
-89.40065002441406,0.3395819067955017,-51.31880569458008,0.23484684526920319,-9.27774429321289,0.9551960825920105,-1.0381470918655396,0.3390815854072571,-0.27937331795692444
-89.95694732666016,0.20724377036094666,-51.57853698730469,0.33049431443214417,-9.74717903137207,0.3337690532207489,-0.9951352477073669,0.32841256260871887,-0.2642744779586792
-90.53262329101562,0.0728456899523735,-51.82555389404297,0.04061482474207878,-10.063568115234375,-0.6062881350517273,-1.0467376708984375,0.4448646605014801,-0.24861201643943787
-91.28373718261719,-0.0627882331609726,-52.25322341918945,0.4515951871871948,-9.832881927490234,-2.374354839324951,-1.2585934400558472,0.6362185478210449,-0.2432665228843689
-92.16618347167969,-0.23426930606365204,-52.69526290893555,0.6599871516227722,-9.617531776428223,-2.6299290657043457,-1.3292303085327148,0.5920712351799011,-0.28416287899017334
-92.9128189086914,-0.4431692659854889,-52.87188720703125,0.10440447181463242,-9.6012544631958,-1.5374538898468018,-1.234978199005127,0.36952638626098633,-0.3084641396999359
-93.47972106933594,-0.6274064183235168,-52.730472564697266,-0.8236538767814636,-9.620707511901855,-0.038804635405540466,-1.0827758312225342,-0.00521059101447463,-0.30638587474823
-93.96995544433594,-0.7744441628456116,-52.36856460571289,-1.1284267902374268,-9.753040313720703,0.6679701209068298,-1.0022279024124146,-0.2379160225391388,-0.29171842336654663
-94.43988037109375,-0.9151493906974792,-51.98031234741211,-0.17101645469665527,-10.049820899963379,2.136505126953125,-0.8921545147895813,-0.4233788847923279,-0.304977148771286
-94.79301452636719,-1.0581692457199097,-51.563602447509766,0.13324205577373505,-10.017386436462402,2.1449179649353027,-0.7148634791374207,-0.5182579159736633,-0.2906411290168762
-95.06303405761719,-1.1715582609176636,-51.22948455810547,0.7211533784866333,-9.49112606048584,2.2736470699310303,-0.6379217505455017,-0.4679153561592102,-0.25919607281684875
-95.33233642578125,-1.2709907293319702,-51.00822830200195,0.8778716325759888,-9.56768798828125,1.7126247882843018,-0.5389825105667114,-0.4171577990055084,-0.23984365165233612
-95.54932403564453,-1.3841323852539062,-50.86001205444336,1.6198992729187012,-9.751519203186035,1.3397866487503052,-0.4717886447906494,-0.28778061270713806,-0.24091190099716187
-95.7656478881836,-1.5262939929962158,-50.82914733886719,2.0376312732696533,-10.543112754821777,0.8653690218925476,-0.44303736090660095,-0.1567213088274002,-0.2526211738586426
-96.05316162109375,-1.6895556449890137,-50.96343994140625,1.6850491762161255,-10.274665832519531,-0.29942086338996887,-0.5368185639381409,0.13323986530303955,-0.24934007227420807
-96.4124755859375,-1.832794189453125,-51.30085754394531,0.9622267484664917,-9.450779914855957,-0.9481834173202515,-0.5504319667816162,0.32502755522727966,-0.1912258416414261
-96.64848327636719,-1.9101362228393555,-51.56903076171875,-0.3163200616836548,-9.466765403747559,-0.4905659556388855,-0.4129455089569092,0.29117944836616516,-0.14142781496047974
-96.70734405517578,-1.955090880393982,-51.62179183959961,-1.1195478439331055,-9.396378517150879,-0.039039455354213715,-0.24353650212287903,0.13655057549476624,-0.11798708885908127
-96.67472839355469,-2.0062007904052734,-51.50362014770508,-0.7513428926467896,-9.444177627563477,0.05003907531499863,-0.10610074549913406,-0.037913769483566284,-0.1362726241350174
-96.60710144042969,-2.0728702545166016,-51.263790130615234,0.25822579860687256,-9.691424369812012,0.39530429244041443,-0.0054065147414803505,-0.2259199470281601,-0.14576207101345062
-96.49014282226562,-2.12699294090271,-50.957435607910156,0.3920745253562927,-9.728861808776855,0.7193484902381897,0.12205158174037933,-0.33027103543281555,-0.14546632766723633
-96.35398864746094,-2.175379753112793,-50.80721664428711,0.5546080470085144,-9.37879753112793,0.36583399772644043,0.1192258894443512,-0.14479795098304749,-0.11363702267408371
-96.28730010986328,-2.212132215499878,-51.055904388427734,1.6878485679626465,-9.469503402709961,-0.06663395464420319,0.10236336290836334,0.254740446805954,-0.04799814522266388
-96.21928405761719,-2.2251434326171875,-51.582237243652344,1.412717580795288,-9.535980224609375,-0.7903845906257629,0.10008659213781357,0.5175137519836426,0.012121550738811493
-96.18878936767578,-2.224001884460449,-52.19101333618164,0.8423146605491638,-9.386371612548828,-1.6415480375289917,0.014232509769499302,0.7946512699127197,0.05651281401515007
-96.19783020019531,-2.2256834506988525,-52.79916000366211,0.45543545484542847,-9.964834213256836,-1.686455249786377,0.028658919036388397,0.7797747850418091,0.06801746040582657
-96.11229705810547,-2.214193105697632,-53.14763641357422,-0.20254233479499817,-9.929825782775879,-1.9098291397094727,0.11091867834329605,0.6192245483398438,0.07282600551843643
-95.97457122802734,-2.194068431854248,-53.33864974975586,0.17026197910308838,-9.726485252380371,-1.584848165512085,0.14507785439491272,0.4904659688472748,0.06331362575292587
-95.85875701904297,-2.1903655529022217,-53.49282455444336,0.4905965328216553,-9.821476936340332,-1.480197787284851,0.15721574425697327,0.39774712920188904,0.042372412979602814
-95.78328704833984,-2.1961567401885986,-53.72557067871094,0.7217472791671753,-9.71272087097168,-1.852722406387329,0.10337375849485397,0.499838262796402,0.05108179897069931
-95.76325225830078,-2.1994307041168213,-54.06816101074219,0.7814561128616333,-9.65307903289795,-1.9529157876968384,0.06541411578655243,0.49502769112586975,0.04585445672273636
-95.75311279296875,-2.2143454551696777,-54.26903533935547,0.37782391905784607,-9.756793022155762,-2.148155927658081,0.04161188751459122,0.35816118121147156,0.014241048134863377
-95.75933837890625,-2.2518696784973145,-54.306522369384766,0.28417450189590454,-9.931905746459961,-2.1864469051361084,0.009777585044503212,0.21068550646305084,-0.02751276269555092
-95.75797271728516,-2.307429790496826,-54.23744583129883,0.23592910170555115,-10.190689086914062,-1.8378419876098633,0.03836098313331604,0.03957059234380722,-0.0673346146941185
-95.72517395019531,-2.3542397022247314,-54.12400436401367,0.19248482584953308,-10.028138160705566,-1.982174277305603,0.03609154373407364,-0.015393645502626896,-0.06198510527610779
-95.70994567871094,-2.3661017417907715,-54.030765533447266,0.09642869979143143,-9.799155235290527,-1.8180129528045654,0.03512148559093475,-0.10263475030660629,-0.04278571531176567
-95.68470764160156,-2.362699270248413,-53.898807525634766,-0.15537600219249725,-9.570176124572754,-1.977656364440918,0.05404204875230789,-0.14018569886684418,-0.03681034594774246
-95.6220703125,-2.3651275634765625,-53.75518035888672,0.4278061091899872,-9.902356147766113,-1.5240901708602905,0.10041950643062592,-0.2092157006263733,-0.03548675402998924
-95.51453399658203,-2.360318660736084,-53.59131622314453,0.9214645028114319,-10.007476806640625,-1.3822460174560547,0.1527702957391739,-0.21409958600997925,-0.0212643351405859
-95.39547729492188,-2.3440115451812744,-53.525421142578125,1.5301063060760498,-9.840285301208496,-1.3834424018859863,0.1597994863986969,-0.11017622798681259,0.0027706848923116922
-95.3056640625,-2.329261541366577,-53.610931396484375,1.7998590469360352,-9.711576461791992,-1.530557632446289,0.14335310459136963,0.044242117553949356,0.015276113525032997
-95.24480438232422,-2.322628974914551,-53.81226348876953,1.6898658275604248,-9.567994117736816,-1.6887290477752686,0.10808765143156052,0.19628654420375824,0.031210672110319138
-95.18743896484375,-2.3165910243988037,-54.02093505859375,1.1851664781570435,-9.490937232971191,-1.4649567604064941,0.12037122249603271,0.2115529626607895,0.027602914720773697
-95.10275268554688,-2.322704315185547,-54.11634063720703,0.6206144690513611,-9.528799057006836,-1.1908307075500488,0.12855513393878937,0.1535969078540802,0.0074287885800004005
-95.01465606689453,-2.3378334045410156,-54.164302825927734,0.2626526951789856,-9.678969383239746,-1.0664639472961426,0.1418287605047226,0.14589229226112366,0.0006126242806203663
-94.89476776123047,-2.3396570682525635,-54.24538803100586,-0.030672168359160423,-9.848065376281738,-0.8994413614273071,0.1900358498096466,0.1510573923587799,0.01532901544123888
-94.73236083984375,-2.3189923763275146,-54.35220718383789,-0.20907612144947052,-9.871073722839355,-0.7616370320320129,0.22749370336532593,0.17963488399982452,0.03623460978269577
-94.5703125,-2.2859296798706055,-54.465702056884766,-0.4027089476585388,-9.806756973266602,-0.5583198070526123,0.23724576830863953,0.16617615520954132,0.05216135457158089
-94.42203521728516,-2.2398462295532227,-54.51913833618164,-0.49131181836128235,-9.794087409973145,-0.8498461246490479,0.24516387283802032,0.10209031403064728,0.07090776413679123
-94.30740356445312,-2.1752052307128906,-54.536312103271484,-0.25597766041755676,-9.91528034210205,-1.599051594734192,0.1909850537776947,0.08737501502037048,0.09515603631734848
-94.25395965576172,-2.116265296936035,-54.56726837158203,0.07457859814167023,-9.655149459838867,-1.7048766613006592,0.14533419907093048,0.06277243793010712,0.08181240409612656
-94.22100830078125,-2.096482276916504,-54.54003143310547,0.2802276909351349,-9.457897186279297,-1.5667190551757812,0.10475984960794449,-0.023271147161722183,0.04362930357456207
-94.19581604003906,-2.101925849914551,-54.41387176513672,0.3790396749973297,-9.520242691040039,-1.3437340259552002,0.09255429357290268,-0.1305561661720276,0.0117374612018466
-94.14850616455078,-2.1137521266937256,-54.222991943359375,0.4215998649597168,-9.58923625946045,-1.0124361515045166,0.10703971982002258,-0.22110682725906372,-0.013738873414695263
-94.07171630859375,-2.128265857696533,-54.014610290527344,0.5035637021064758,-9.731325149536133,-0.5323341488838196,0.13293500244617462,-0.267980694770813,-0.02657734788954258
-93.97794342041016,-2.135004997253418,-53.818302154541016,0.6353432536125183,-9.832359313964844,-0.28359144926071167,0.15045374631881714,-0.29171982407569885,-0.023514045402407646
-93.89208984375,-2.1277377605438232,-53.64935302734375,0.5245223045349121,-9.86523151397705,-0.49319565296173096,0.14315494894981384,-0.26901230216026306,-0.011159855872392654
-93.82827758789062,-2.1093177795410156,-53.540870666503906,0.2978582978248596,-9.911273002624512,-0.7414258718490601,0.12554509937763214,-0.21159543097019196,0.006457232870161533
-93.79769897460938,-2.086164712905884,-53.47233963012695,0.27438363432884216,-9.86898136138916,-0.8748583793640137,0.07508714497089386,-0.17734210193157196,0.014237875118851662
-93.816162109375,-2.066549301147461,-53.38825607299805,0.28636887669563293,-9.801098823547363,-1.0621243715286255,0.023383280262351036,-0.180815190076828,0.015921521931886673
-93.8389892578125,-2.048217535018921,-53.2678108215332,0.2929801940917969,-9.767387390136719,-1.0800704956054688,0.019298681989312172,-0.20618924498558044,0.015453438274562359
-93.85786437988281,-2.036226511001587,-53.11293411254883,0.5264428853988647,-9.809042930603027,-1.0234105587005615,-0.019333142787218094,-0.2434946894645691,0.002619811100885272
-93.92007446289062,-2.0406312942504883,-52.94536209106445,0.7884061932563782,-9.981388092041016,-0.8021091222763062,-0.05956890061497688,-0.2516828775405884,-0.015384708531200886
-93.97434997558594,-2.0545494556427,-52.81051254272461,0.8065422773361206,-10.017274856567383,-0.43856534361839294,-0.04605018347501755,-0.22271354496479034,-0.023147841915488243
-94.01021575927734,-2.0633697509765625,-52.74277877807617,0.8066303133964539,-9.953926086425781,-0.30465391278266907,-0.07193424552679062,-0.1435529589653015,-0.01631714589893818
-94.07308959960938,-2.0656988620758057,-52.74056625366211,0.8875460624694824,-10.00631046295166,-0.25361576676368713,-0.08379669487476349,-0.08055420219898224,-0.01186505239456892
-94.12825775146484,-2.0695278644561768,-52.76851272583008,0.7802854776382446,-9.856548309326172,-0.22976140677928925,-0.0863049104809761,-0.01173950545489788,-0.008261575363576412
-94.17713928222656,-2.07246994972229,-52.822662353515625,0.4933037757873535,-9.697221755981445,-0.19677118957042694,-0.08634815365076065,0.027923475950956345,-0.0024959449656307697
-94.2160415649414,-2.072377920150757,-52.86344528198242,0.23069804906845093,-9.659810066223145,-0.20986008644104004,-0.07056408375501633,0.033392198383808136,-0.000934302865061909
-94.22520446777344,-2.0697226524353027,-52.88823318481445,0.13656340539455414,-9.717536926269531,-0.19936086237430573,-0.033506378531455994,0.03946591168642044,0.005738251376897097
-94.21063995361328,-2.060285806655884,-52.91838073730469,0.16215276718139648,-9.718517303466797,-0.5103742480278015,-0.013708697631955147,0.04731771722435951,0.013109112158417702
-94.2088851928711,-2.0497193336486816,-52.96021270751953,0.22041930258274078,-9.731032371520996,-0.5093307495117188,-0.019470976665616035,0.06567743420600891,0.01585204154253006
-94.22428131103516,-2.0451605319976807,-52.997344970703125,0.23552565276622772,-9.759800910949707,-0.6257140636444092,-0.02365409955382347,0.04780049994587898,0.009431501850485802
-94.24970245361328,-2.049520969390869,-52.99868392944336,0.25390249490737915,-9.79686164855957,-0.6029564142227173,-0.04046037420630455,0.022883711382746696,-0.0015024093445390463
-94.29913330078125,-2.0679543018341064,-52.99155807495117,0.4663870334625244,-9.930746078491211,-0.7763130068778992,-0.06919986754655838,0.01700892671942711,-0.022549184039235115
-94.35466766357422,-2.097261428833008,-52.98641586303711,0.5152779221534729,-9.896730422973633,-0.715835452079773,-0.06804019212722778,0.002921931678429246,-0.03112405724823475
-94.39290618896484,-2.117321252822876,-52.97260665893555,0.30522167682647705,-9.624109268188477,-0.5509296655654907,-0.0671975314617157,-0.005140902008861303,-0.02863854542374611
-94.42936706542969,-2.1320247650146484,-52.94417953491211,0.23622620105743408,-9.618265151977539,-0.297579824924469,-0.06283373385667801,-0.03723428025841713,-0.03238394856452942
-94.4462890625,-2.1487433910369873,-52.8851318359375,0.19819636642932892,-9.74312973022461,-0.15823878347873688,-0.030296672135591507,-0.06615930050611496,-0.03378279507160187
-94.4339370727539,-2.1610448360443115,-52.82520294189453,0.23966701328754425,-9.736763954162598,-0.06687422841787338,-0.00728778587654233,-0.07149316370487213,-0.02855248749256134
-94.4159927368164,-2.167257785797119,-52.78546905517578,0.3336292803287506,-9.718021392822266,-0.1535329967737198,0.010693262331187725,-0.06076359003782272,-0.021859264001250267
-94.40345764160156,-2.168419361114502,-52.77348709106445,0.38205525279045105,-9.657400131225586,-0.489198237657547,0.004438497591763735,-0.029305001720786095,-0.01081898994743824
-94.42313385009766,-2.1681668758392334,-52.814579010009766,0.4357180595397949,-9.703497886657715,-0.8089303970336914,-0.031066318973898888,0.042093366384506226,-0.005610661115497351
-94.47013854980469,-2.174436092376709,-52.89323806762695,0.5123968124389648,-9.851776123046875,-1.0553632974624634,-0.051987551152706146,0.06841515749692917,-0.005993248429149389
-94.50878143310547,-2.1821017265319824,-52.94222640991211,0.4619196057319641,-9.93680477142334,-1.1300314664840698,-0.05001239851117134,0.061983801424503326,-0.006776676047593355
-94.54701232910156,-2.1876773834228516,-52.973243713378906,0.46170684695243835,-9.77385425567627,-1.1467068195343018,-0.07100775092840195,0.06327386945486069,-0.005132704041898251
-94.60834503173828,-2.191086769104004,-52.99317169189453,0.4577201008796692,-9.620918273925781,-1.0687282085418701,-0.0876251608133316,0.0360073558986187,-0.005289167165756226
-94.66291046142578,-2.194133758544922,-52.97620391845703,0.3709261417388916,-9.671884536743164,-0.9238505959510803,-0.0776827335357666,0.00026393684674985707,-0.00799074862152338
-94.69425964355469,-2.198523759841919,-52.9388313293457,0.38364675641059875,-9.769021987915039,-0.7686620950698853,-0.06242172047495842,-0.026440251618623734,-0.010689721442759037
-94.7160415649414,-2.2019169330596924,-52.89159393310547,0.44683125615119934,-9.777505874633789,-0.7367024421691895,-0.05032867565751076,-0.0528041310608387,-0.010417401790618896
-94.74048614501953,-2.2037527561187744,-52.838191986083984,0.5164697766304016,-9.743634223937988,-0.704051673412323,-0.05137212574481964,-0.06404184550046921,-0.011599063873291016
-94.77538299560547,-2.2087948322296143,-52.78611755371094,0.45288509130477905,-9.760411262512207,-0.736952006816864,-0.05661360174417496,-0.07634981721639633,-0.015603751875460148
-94.80484771728516,-2.213010787963867,-52.73918151855469,0.39853203296661377,-9.768722534179688,-0.9030550718307495,-0.04320219159126282,-0.06647930294275284,-0.010619685053825378
-94.82056427001953,-2.20982027053833,-52.70972442626953,0.3735652267932892,-9.768298149108887,-0.8685681819915771,-0.03907495364546776,-0.0593375526368618,-0.0042166560888290405
-94.844482421875,-2.2082877159118652,-52.69515609741211,0.3529314696788788,-9.79129695892334,-0.9931307435035706,-0.0451456718146801,-0.030519068241119385,-0.0063803051598370075
-94.88346862792969,-2.2141096591949463,-52.69904327392578,0.3633679449558258,-9.737282752990723,-1.1418272256851196,-0.062388934195041656,-0.019024314358830452,-0.007918850518763065
-94.93661499023438,-2.2171170711517334,-52.68855285644531,0.3343852460384369,-9.71231460571289,-1.1533714532852173,-0.0750180333852768,-0.027080999687314034,-0.005754455924034119
-94.99803924560547,-2.219111442565918,-52.65818786621094,0.31041309237480164,-9.744388580322266,-1.1372042894363403,-0.09273886680603027,-0.042244791984558105,-0.010700897313654423
-95.06578826904297,-2.227383613586426,-52.607269287109375,0.3367215692996979,-9.759445190429688,-1.0906137228012085,-0.09723416715860367,-0.06994307041168213,-0.017705189064145088
-95.12321472167969,-2.2365822792053223,-52.531578063964844,0.3156161606311798,-9.79647159576416,-0.9552825093269348,-0.09076113253831863,-0.10029377043247223,-0.021146241575479507
-95.17350769042969,-2.2405638694763184,-52.4500732421875,0.3735874891281128,-9.82203483581543,-0.9737799167633057,-0.08891113847494125,-0.10848008096218109,-0.01668594963848591
-95.22783660888672,-2.2439169883728027,-52.381744384765625,0.4019898474216461,-9.791183471679688,-0.8814647793769836,-0.09219871461391449,-0.10783487558364868,-0.02156831882894039
-95.28292083740234,-2.2551727294921875,-52.31438064575195,0.271027535200119,-9.761277198791504,-0.7847080230712891,-0.08838997781276703,-0.11371935158967972,-0.025934357196092606
-95.3486557006836,-2.2698559761047363,-52.27055740356445,0.2773618996143341,-9.706048965454102,-1.0104122161865234,-0.11566431820392609,-0.06570930033922195,-0.028699269518256187
-95.45247650146484,-2.290670156478882,-52.283416748046875,0.40927204489707947,-9.748165130615234,-1.1283833980560303,-0.15495865046977997,-0.020150095224380493,-0.03193579986691475
-95.57122039794922,-2.313549280166626,-52.2967643737793,0.40404078364372253,-9.723978996276855,-1.1344964504241943,-0.16902615129947662,-0.016433006152510643,-0.03492572158575058
-95.67674255371094,-2.3335816860198975,-52.272438049316406,0.28083860874176025,-9.746223449707031,-1.0796962976455688,-0.16853436827659607,-0.04044622555375099,-0.03648288547992706
-95.77996826171875,-2.350529670715332,-52.227195739746094,0.36602386832237244,-9.801301002502441,-1.0954807996749878,-0.17755034565925598,-0.049484532326459885,-0.03616997227072716
-95.88778686523438,-2.367872476577759,-52.1762580871582,0.5475808382034302,-9.801542282104492,-0.9707536697387695,-0.1756374090909958,-0.07416495680809021,-0.03991984948515892
-95.98563385009766,-2.3873140811920166,-52.117835998535156,0.5882811546325684,-9.764613151550293,-0.8553503751754761,-0.16864576935768127,-0.07106700539588928,-0.04096628352999687
-96.08238220214844,-2.407327175140381,-52.096832275390625,0.5832461714744568,-9.739486694335938,-0.7848009467124939,-0.17445091903209686,-0.03379099816083908,-0.03803038224577904
-96.181884765625,-2.4295690059661865,-52.108646392822266,0.5785187482833862,-9.781597137451172,-0.7054585814476013,-0.1688476800918579,-0.01052506547421217,-0.03994927927851677
-96.2651138305664,-2.4559335708618164,-52.13346862792969,0.5499691963195801,-9.776202201843262,-0.8459643721580505,-0.1528356373310089,0.026869220659136772,-0.039670996367931366
-96.33501434326172,-2.477858304977417,-52.16997528076172,0.4544929265975952,-9.700356483459473,-0.8942721486091614,-0.14091099798679352,0.03217664733529091,-0.031909726560115814
-96.40816497802734,-2.490063428878784,-52.19287872314453,0.2401363104581833,-9.654998779296875,-0.8737462759017944,-0.14147761464118958,0.038874346762895584,-0.024978820234537125
-96.47650909423828,-2.497988700866699,-52.215431213378906,0.1631612330675125,-9.629378318786621,-0.8357024788856506,-0.12059808522462845,0.03601890057325363,-0.016758590936660767
-96.5122299194336,-2.5009350776672363,-52.216163635253906,0.1396169811487198,-9.691526412963867,-0.6697312593460083,-0.08344725519418716,0.006861054338514805,-0.013663995079696178
-96.52928924560547,-2.5020737648010254,-52.19356918334961,0.2678164839744568,-9.721212387084961,-0.6189790964126587,-0.06536097079515457,-0.007664413657039404,-0.009998306632041931
-96.545654296875,-2.5017542839050293,-52.17584228515625,0.4120113253593445,-9.746553421020508,-0.6392692923545837,-0.045546893030405045,-0.014165045693516731,-0.007103756535798311
-96.55799102783203,-2.502509355545044,-52.180843353271484,0.5151194930076599,-9.701196670532227,-0.8115089535713196,-0.04200321063399315,0.017411261796951294,-0.003690086305141449
-96.5713119506836,-2.507016658782959,-52.20282745361328,0.5343155860900879,-9.672405242919922,-0.8589545488357544,-0.028664618730545044,0.009496883489191532,-0.007370859384536743
-96.57654571533203,-2.513571262359619,-52.1890869140625,0.520281970500946,-9.653072357177734,-0.8203496932983398,-0.021671878173947334,-0.012451411224901676,-0.010925158858299255
-96.56901550292969,-2.5172083377838135,-52.154701232910156,0.5152350068092346,-9.68851375579834,-0.8702753186225891,0.008554943837225437,-0.03475584089756012,-0.010079517029225826
-96.533203125,-2.51540207862854,-52.12897872924805,0.4791185259819031,-9.728302955627441,-0.9270833730697632,0.033986758440732956,-0.020490217953920364,-0.003288686741143465
-96.4959716796875,-2.5102367401123047,-52.151268005371094,0.5149268507957458,-9.754716873168945,-0.9899777173995972,0.03760140761733055,0.025397352874279022,0.006102584768086672
-96.48473358154297,-2.5022990703582764,-52.226383209228516,0.6098831295967102,-9.690520286560059,-1.2166229486465454,0.010009299032390118,0.08477812260389328,0.018743615597486496
-96.51146697998047,-2.495199203491211,-52.321449279785156,0.5786734819412231,-9.679642677307129,-1.3493258953094482,-0.026558345183730125,0.10602308809757233,0.018014205619692802
-96.56270599365234,-2.497342586517334,-52.38778305053711,0.47213906049728394,-9.748154640197754,-1.4546103477478027,-0.05816595256328583,0.09623152762651443,0.009760077111423016
-96.61943817138672,-2.5077362060546875,-52.4177131652832,0.3425293564796448,-9.799922943115234,-1.4545727968215942,-0.06991548836231232,0.06581004709005356,-0.0041756778955459595
