Roll,Pitch,Yaw,AccX,AccY,AccZ,GyroX,GyroY,GyroZ
71.4364013671875,37.48893737792969,80.31211853027344,-4.635846138000488,6.8538336753845215,2.399176597595215,0.10101557523012161,-0.2728061079978943,0.15841449797153473
71.32189178466797,37.59750747680664,80.1107177734375,-4.559239864349365,6.427937030792236,2.519421100616455,0.04753490909934044,-0.26854661107063293,-0.02230890840291977
71.30852508544922,37.73837661743164,79.94249725341797,-4.3784661293029785,6.359511375427246,2.6833698749542236,0.06657969951629639,-0.21143485605716705,-0.08488224446773529
71.2984390258789,38.075199127197266,79.64643096923828,-4.378210544586182,6.169273853302002,2.9927659034729004,0.13545255362987518,-0.20230868458747864,-0.2415602207183838
71.35053253173828,38.62572479248047,79.36318969726562,-3.960364580154419,5.936474800109863,2.868783473968506,0.22998113930225372,-0.21083050966262817,-0.5276536345481873
71.65768432617188,39.20543670654297,79.3519058227539,-3.5509958267211914,5.874275207519531,2.7725675106048584,0.30260053277015686,-0.05495115742087364,-0.7453169822692871
72.2200927734375,39.703125,79.56656646728516,-3.204972743988037,5.673487186431885,2.6884102821350098,0.47711843252182007,0.14664466679096222,-0.7431985139846802
72.77940368652344,40.319210052490234,79.80950927734375,-3.335202932357788,4.997536659240723,2.828059673309326,0.5712468028068542,0.335593581199646,-0.7347770929336548
73.28887939453125,41.21757888793945,79.84761047363281,-4.127369403839111,4.3050947189331055,3.4513988494873047,0.6121283173561096,0.43782496452331543,-0.9328492283821106
73.83611297607422,42.407962799072266,79.60791015625,-4.272826194763184,3.7777528762817383,3.6997902393341064,0.8052951693534851,0.4004789888858795,-1.2841274738311768
74.42147064208984,43.87318801879883,79.15790557861328,-4.388639450073242,3.151444435119629,3.7807869911193848,1.037493348121643,0.32205450534820557,-1.7299288511276245
75.13680267333984,45.477867126464844,78.5910415649414,-4.704738616943359,3.04710054397583,3.3942620754241943,1.3217105865478516,0.22305573523044586,-2.171945333480835
75.98136138916016,47.0980339050293,78.06548309326172,-5.307788372039795,3.194683313369751,2.7878787517547607,1.6546540260314941,0.15043066442012787,-2.4469337463378906
76.98661804199219,48.65101623535156,77.7048110961914,-6.031558036804199,3.4066314697265625,2.6049230098724365,1.8009569644927979,0.15219515562057495,-2.622606039047241
78.36070251464844,50.02846908569336,77.54887390136719,-6.248156547546387,3.2497503757476807,2.0379092693328857,2.075763463973999,0.2160702645778656,-2.55627179145813
79.84856414794922,51.446144104003906,77.46463775634766,-6.584602355957031,3.127434730529785,1.81692636013031,2.3349318504333496,0.2556932866573334,-2.448291063308716
81.30458068847656,53.101287841796875,77.44478607177734,-8.045384407043457,3.3652641773223877,1.897507905960083,2.455376625061035,0.315331369638443,-2.551335334777832
82.78614044189453,54.78688049316406,77.56364440917969,-8.599638938903809,3.6813597679138184,1.4807788133621216,2.4511406421661377,0.3883112370967865,-2.744596481323242
84.4202880859375,56.278865814208984,77.94261932373047,-8.206096649169922,4.281006813049316,0.44424623250961304,2.4245758056640625,0.46221038699150085,-2.6962790489196777
86.083251953125,57.658748626708984,78.53922271728516,-8.841492652893066,5.289881229400635,-0.3816150426864624,2.337404251098633,0.5851178765296936,-2.5864884853363037
87.65977478027344,58.84682083129883,79.20500183105469,-10.098565101623535,6.594677448272705,-0.852836549282074,2.1232669353485107,0.6395828723907471,-2.45196795463562
89.14422607421875,59.672611236572266,79.81343841552734,-11.202735900878906,7.85616397857666,-1.666562795639038,1.980366587638855,0.6717032790184021,-2.162442207336426
90.30699157714844,60.081520080566406,80.17569732666016,-12.268885612487793,8.560863494873047,-2.260075807571411,1.8245729207992554,0.5430619716644287,-1.7077716588974
91.08150482177734,60.24530792236328,80.3272705078125,-12.681497573852539,9.065255165100098,-2.4709343910217285,1.6373106241226196,0.4353557229042053,-1.1656112670898438
91.29988098144531,60.3687858581543,80.12653350830078,-13.63361930847168,8.884186744689941,-2.3072426319122314,1.3095417022705078,0.2199353724718094,-0.8275134563446045
91.08841705322266,60.386104583740234,79.64347076416016,-13.907313346862793,9.195318222045898,-2.598464250564575,1.0091102123260498,0.0305965393781662,-0.5504307150840759
90.47345733642578,60.236141204833984,78.89152526855469,-13.658831596374512,9.336158752441406,-2.901392698287964,0.6601034998893738,-0.23392421007156372,-0.29872170090675354
89.73631286621094,59.82571792602539,78.12752532958984,-13.208873748779297,9.624753952026367,-3.301485300064087,0.41112974286079407,-0.3875771164894104,0.017249420285224915
88.76324462890625,59.264583587646484,77.41150665283203,-12.365657806396484,8.918623924255371,-3.347618579864502,0.11310356855392456,-0.5184984803199768,0.4016602039337158
87.7261734008789,58.7884635925293,76.89881896972656,-11.865743637084961,8.323845863342285,-3.0256927013397217,-0.32805678248405457,-0.5231340527534485,0.58649742603302
86.53955078125,58.24507522583008,76.24260711669922,-11.577226638793945,9.150336265563965,-3.2158639430999756,-0.6058344841003418,-0.49049386382102966,0.6300252676010132
85.09539031982422,57.35512924194336,75.4956283569336,-10.904365539550781,9.19197940826416,-3.403270721435547,-0.8197504878044128,-0.6868603229522705,0.8729674816131592
83.79475402832031,56.21043395996094,75.33332824707031,-10.79458999633789,7.80361270904541,-3.1729538440704346,-1.2049473524093628,-0.6163861751556396,1.2584539651870728
82.4464340209961,55.06544876098633,75.3204345703125,-11.016119003295898,7.740057468414307,-2.72322678565979,-1.6564030647277832,-0.4255484342575073,1.583974003791809
80.8886489868164,53.92616653442383,75.12847137451172,-10.909244537353516,8.249669075012207,-2.2418832778930664,-1.8948607444763184,-0.4532981812953949,1.648587942123413
79.2781982421875,52.58937072753906,75.02767181396484,-10.200141906738281,8.18048095703125,-2.0902493000030518,-2.2102484703063965,-0.46632853150367737,1.8753770589828491
77.72223663330078,51.30313491821289,74.94961547851562,-9.549059867858887,7.697186470031738,-1.7452189922332764,-2.35920786857605,-0.5023852586746216,2.0526812076568604
76.04998779296875,50.218990325927734,74.70242309570312,-8.879889488220215,6.687466144561768,-1.0218393802642822,-2.4631612300872803,-0.49960681796073914,2.0077285766601562
74.17951965332031,49.18293762207031,74.11947631835938,-8.617453575134277,6.910832405090332,-0.6233500838279724,-2.484281301498413,-0.7122355699539185,1.8260740041732788
72.47382354736328,47.962764739990234,73.62483978271484,-7.7833333015441895,6.831888198852539,-0.46764034032821655,-2.4615395069122314,-0.9061833620071411,1.7716999053955078
71.06014251708984,46.5712890625,73.42652893066406,-6.7915825843811035,5.809515476226807,-0.24973547458648682,-2.349104404449463,-0.9746199250221252,1.941788911819458
69.71541595458984,45.20969772338867,73.34257507324219,-6.366725921630859,5.683016777038574,0.1867414265871048,-2.3309695720672607,-0.9101672768592834,2.070338249206543
68.34464263916016,43.939910888671875,73.16222381591797,-6.613882541656494,5.232091426849365,0.7678923010826111,-2.2702348232269287,-0.9591524600982666,2.0750133991241455
67.0372085571289,42.780216217041016,73.01611328125,-6.465806007385254,4.530195236206055,1.4668973684310913,-2.2361600399017334,-0.9584749937057495,1.98974609375
65.8832778930664,41.71098327636719,72.94039916992188,-5.796454906463623,3.926811456680298,2.0893499851226807,-2.145530939102173,-0.9502274990081787,1.8901320695877075
64.82412719726562,40.8029670715332,72.88036346435547,-4.843149185180664,2.7399606704711914,2.801307201385498,-2.020585775375366,-0.8510467410087585,1.7751080989837646
63.78599548339844,40.0548210144043,72.6819839477539,-5.1068525314331055,3.4280381202697754,3.3706512451171875,-1.9123129844665527,-0.8383585810661316,1.5234930515289307
62.884925842285156,39.41997528076172,72.48717498779297,-4.269495487213135,3.4493484497070312,3.7454657554626465,-1.6981496810913086,-0.8287435173988342,1.3181577920913696
61.939762115478516,39.064422607421875,72.30535888671875,-3.6791834831237793,2.4238831996917725,4.313482284545898,-1.5724670886993408,-0.7481017708778381,1.084240198135376
61.11962890625,39.01521682739258,72.14311981201172,-4.544650077819824,3.3477022647857666,5.20463228225708,-1.5785428285598755,-0.5965043902397156,0.6724731922149658
60.4560546875,39.0885009765625,71.96009063720703,-3.225400686264038,2.396617889404297,5.020089626312256,-1.249629259109497,-0.40379664301872253,0.38083356618881226
59.73769760131836,39.21858215332031,71.7618637084961,-3.47214674949646,2.161323070526123,5.794382572174072,-1.2893849611282349,-0.3576774001121521,0.05980569124221802
59.379493713378906,39.51816177368164,71.6832275390625,-2.829239845275879,2.0885636806488037,6.227665424346924,-0.9976690411567688,-0.17869102954864502,-0.00780488969758153
59.05619812011719,40.19760513305664,71.4153823852539,-2.618337631225586,2.3731045722961426,6.569895267486572,-0.8324922919273376,-0.012739795260131359,-0.4365617036819458
58.98564529418945,40.99948501586914,70.97602844238281,-1.163585901260376,2.6621267795562744,6.531413555145264,-0.4306052029132843,0.11944346129894257,-0.7734470963478088
59.065818786621094,41.87052917480469,70.19593811035156,-1.9341528415679932,3.1745493412017822,6.575883865356445,-0.025638343766331673,0.07437530159950256,-1.1624085903167725
59.367122650146484,42.75090408325195,69.20568084716797,-2.7527308464050293,2.5770366191864014,6.413607120513916,0.6344154477119446,-0.062102340161800385,-1.4386624097824097
59.497703552246094,43.914710998535156,68.09012603759766,-3.8055460453033447,1.1426953077316284,6.84903621673584,1.0265328884124756,-0.1965256929397583,-1.697231411933899
59.493072509765625,45.52564239501953,66.8219985961914,-4.112471580505371,0.8929741382598877,6.742173194885254,1.1693211793899536,-0.06615802645683289,-2.2106683254241943
59.5487174987793,47.22047805786133,65.33241271972656,-4.899674415588379,1.0055798292160034,6.317728042602539,1.4151172637939453,-0.0568203441798687,-2.702244997024536
59.99058532714844,48.782432556152344,64.16986083984375,-6.190042018890381,0.8527962565422058,5.6898980140686035,1.7366573810577393,-0.05810324475169182,-2.964858055114746
61.0108642578125,50.15327453613281,63.77277374267578,-6.164486885070801,1.309103012084961,4.7704572677612305,1.9601013660430908,0.1877795159816742,-2.773630380630493
62.415199279785156,51.46975326538086,63.79951477050781,-6.006216526031494,2.1343579292297363,3.9952144622802734,2.101213216781616,0.5179810523986816,-2.483304738998413
64.12957000732422,52.79564666748047,64.00665283203125,-6.000412464141846,2.701915979385376,3.306735038757324,2.2958765029907227,0.763380229473114,-2.2831766605377197
66.04998016357422,54.1862907409668,64.3593521118164,-6.321920394897461,3.0130715370178223,2.8467676639556885,2.528891086578369,0.9735503792762756,-2.1546778678894043
67.87527465820312,55.701385498046875,64.66324615478516,-6.831637859344482,3.243570327758789,2.5015275478363037,2.6378607749938965,1.1259417533874512,-2.165334939956665
69.52070617675781,57.35301208496094,64.81645202636719,-7.475616931915283,3.664031982421875,1.9678009748458862,2.650803804397583,1.1569194793701172,-2.2939116954803467
71.10557556152344,59.14006805419922,64.94951629638672,-8.900989532470703,3.8357279300689697,1.1329922676086426,2.6355457305908203,1.158110499382019,-2.498347043991089
72.70616149902344,60.841392517089844,65.25567626953125,-10.751391410827637,4.651145935058594,0.5062029957771301,2.579651117324829,1.1744792461395264,-2.6867129802703857
74.34037780761719,62.1244010925293,65.9087905883789,-11.425837516784668,5.586261749267578,-0.4986191987991333,2.3827645778656006,1.170920729637146,-2.544759750366211
75.82638549804688,62.9799919128418,66.74185180664062,-12.05773639678955,7.523359298706055,-1.5270963907241821,2.0497522354125977,1.1624339818954468,-2.125704765319824
76.97876739501953,63.517154693603516,67.46540069580078,-12.769405364990234,8.426287651062012,-2.034986972808838,1.644404411315918,1.0360196828842163,-1.6774860620498657
77.82344818115234,63.73112487792969,68.02582550048828,-13.358161926269531,9.193578720092773,-2.2319090366363525,1.2927385568618774,0.8958311080932617,-1.2171272039413452
78.25688171386719,63.621463775634766,68.28655242919922,-13.530386924743652,9.172323226928711,-2.261066198348999,0.9531118273735046,0.6393397450447083,-0.7234777212142944
78.34211730957031,63.327781677246094,68.30833435058594,-13.668335914611816,9.017027854919434,-2.316606044769287,0.6900098919868469,0.40588629245758057,-0.26152363419532776
77.97793579101562,62.987152099609375,68.03267669677734,-13.72053337097168,9.042880058288574,-2.405543804168701,0.379434734582901,0.13705968856811523,0.04568830132484436
77.48262023925781,62.477203369140625,67.77618408203125,-12.98263931274414,8.803832054138184,-2.464779853820801,0.10464661568403244,-0.0733487457036972,0.23190443217754364
77.0765380859375,61.615901947021484,67.81385040283203,-12.000293731689453,7.982243061065674,-2.4323415756225586,-0.19119048118591309,-0.18681737780570984,0.6418154835700989
76.66093444824219,60.675384521484375,67.96858978271484,-11.694524765014648,7.716740131378174,-2.401521921157837,-0.4711655378341675,-0.19601105153560638,1.0650553703308105
76.02825164794922,59.86530303955078,68.01136016845703,-11.80873966217041,7.5643205642700195,-2.0719361305236816,-0.6839234828948975,-0.24529676139354706,1.2060195207595825
75.23492431640625,59.05323028564453,68.16578674316406,-11.700525283813477,7.624069690704346,-1.8474284410476685,-0.9562779664993286,-0.2587919533252716,1.243192434310913
74.39966583251953,58.14763641357422,68.54808807373047,-10.971336364746094,7.388898849487305,-1.9664506912231445,-1.3448024988174438,-0.21934108436107635,1.3704540729522705
73.52936553955078,57.07140350341797,69.03900909423828,-10.517391204833984,8.051774978637695,-2.1231563091278076,-1.6410775184631348,-0.13312749564647675,1.4879603385925293
72.53040313720703,55.68525314331055,69.49628448486328,-10.176336288452148,8.4838228225708,-2.0420665740966797,-1.9499353170394897,-0.17757382988929749,1.811913013458252
71.48228454589844,54.1812629699707,69.86140441894531,-10.146889686584473,9.048286437988281,-1.8371578454971313,-2.0993144512176514,-0.24682047963142395,2.1203243732452393
70.1754379272461,52.67104721069336,69.99064636230469,-10.157110214233398,7.838894367218018,-1.3329991102218628,-2.2006006240844727,-0.39632123708724976,2.3038227558135986
68.67597198486328,51.240230560302734,69.97478485107422,-9.949544906616211,6.973765850067139,-0.7722547054290771,-2.356191635131836,-0.5955519080162048,2.356232166290283
67.15983581542969,49.848690032958984,69.87992095947266,-9.7237548828125,5.847917556762695,-0.15691199898719788,-2.432328939437866,-0.7092171907424927,2.286992073059082
65.64163208007812,48.33797836303711,69.66921997070312,-9.008246421813965,5.5236687660217285,0.2930094599723816,-2.437958002090454,-0.9134736061096191,2.2846343517303467
64.20685577392578,46.771121978759766,69.49736785888672,-8.334420204162598,5.826930522918701,0.3140123188495636,-2.359222888946533,-1.0819807052612305,2.3322842121124268
62.84041976928711,45.27284622192383,69.45162200927734,-7.498963832855225,5.342988967895508,0.7863454818725586,-2.3573479652404785,-1.1773937940597534,2.3539199829101562
61.613887786865234,43.955196380615234,69.58541107177734,-6.510744094848633,4.245154857635498,1.4980480670928955,-2.328643321990967,-1.1278239488601685,2.2997701168060303
60.44478988647461,42.836666107177734,69.79328155517578,-5.618990421295166,3.488614797592163,2.267735004425049,-2.3382208347320557,-0.9836063385009766,2.1658260822296143
59.32466125488281,41.8354377746582,69.8502426147461,-5.193985462188721,3.2417192459106445,2.829357385635376,-2.2877883911132812,-0.8735142946243286,1.9638549089431763
58.332855224609375,40.955055236816406,69.80743408203125,-4.956550121307373,2.9924678802490234,3.8361458778381348,-2.077132225036621,-0.937915027141571,1.747852087020874
57.605133056640625,40.350215911865234,69.90013122558594,-4.730890274047852,2.0609054565429688,4.92395544052124,-1.8900690078735352,-0.7881045937538147,1.5097025632858276
56.941490173339844,40.01185607910156,69.90601348876953,-4.263692855834961,1.311444878578186,5.316192626953125,-1.5670548677444458,-0.61571204662323,1.1975005865097046
56.163509368896484,39.88499450683594,69.82584381103516,-3.7786002159118652,0.950821042060852,6.102798938751221,-1.4914332628250122,-0.49403396248817444,0.814000129699707
55.637908935546875,39.92938232421875,69.83133697509766,-3.1356406211853027,1.1568706035614014,6.529193878173828,-1.344864010810852,-0.3492639660835266,0.5086682438850403
55.4005241394043,40.177947998046875,69.98445129394531,-2.3772873878479004,1.182054042816162,6.666740894317627,-1.071890950202942,-0.10751837491989136,0.24491018056869507
55.27131652832031,40.58369445800781,70.09669494628906,-2.383434772491455,1.5791373252868652,6.950806140899658,-0.8614771366119385,0.16260965168476105,0.01961539313197136
55.160804748535156,41.118682861328125,69.89553833007812,-2.816779613494873,2.1845004558563232,7.093330383300781,-0.5641040205955505,0.24618612229824066,-0.2751888036727905
54.97647476196289,41.76289749145508,69.37161254882812,-3.156325578689575,2.823056936264038,7.09617805480957,-0.2613721489906311,0.22065313160419464,-0.6238354444503784
54.70307540893555,42.432735443115234,68.5378646850586,-3.6471121311187744,3.8443868160247803,6.74580192565918,-0.020190035924315453,0.09639431536197662,-0.9650198221206665
54.50270462036133,43.071739196777344,67.60757446289062,-4.433811664581299,3.8655765056610107,6.413569927215576,0.2557509243488312,-0.09513485431671143,-1.2353450059890747
54.505271911621094,43.693702697753906,66.82752227783203,-4.7339091300964355,3.550093173980713,6.104597568511963,0.47425562143325806,-0.14484795928001404,-1.3287614583969116
54.646240234375,44.37353515625,65.98368072509766,-4.554762840270996,2.5281639099121094,6.161250591278076,0.7224124073982239,-0.13543763756752014,-1.3636258840560913
54.84470748901367,45.21463394165039,64.84346771240234,-4.855079174041748,1.8637573719024658,6.767967224121094,1.024724006652832,-0.19569046795368195,-1.5435971021652222
55.117069244384766,46.28477096557617,63.4560661315918,-4.990306377410889,1.1892625093460083,6.862863063812256,1.448066234588623,-0.2558320462703705,-1.8325397968292236
55.3308219909668,47.67961120605469,61.93293380737305,-5.104896068572998,0.40318015217781067,6.69879150390625,1.789018154144287,-0.2633422613143921,-2.2080624103546143
55.56260681152344,49.36185073852539,60.47805404663086,-5.8675689697265625,-0.26747408509254456,6.359801292419434,1.9804834127426147,-0.09911663830280304,-2.655081033706665
56.06002426147461,51.04119873046875,59.33963394165039,-6.959643840789795,-0.11554600298404694,5.5918803215026855,2.1277737617492676,0.12096434086561203,-2.915498971939087
57.13979721069336,52.55799102783203,58.84901428222656,-7.397914886474609,1.1543270349502563,4.350295066833496,2.2618963718414307,0.3760368227958679,-2.8662755489349365
59.05026626586914,53.81325912475586,59.25193786621094,-6.532909870147705,2.1408638954162598,3.010608434677124,2.4404726028442383,0.7496461868286133,-2.535797357559204
61.585670471191406,54.7667350769043,60.28323745727539,-6.331992149353027,3.1916778087615967,2.3291430473327637,2.6185550689697266,1.1168698072433472,-1.9469118118286133
64.07516479492188,55.799617767333984,61.28065490722656,-6.939641952514648,3.5844976902008057,2.052111864089966,2.81487774848938,1.3315691947937012,-1.4931633472442627
66.05780792236328,57.14657211303711,61.90677261352539,-8.080728530883789,4.078772068023682,1.8692396879196167,2.738386869430542,1.4587340354919434,-1.5924631357192993
67.76979064941406,58.45724105834961,62.2640380859375,-9.04603385925293,4.800109386444092,1.2417420148849487,2.627826690673828,1.418494701385498,-1.7646366357803345
69.34407043457031,59.612247467041016,62.489803314208984,-9.928105354309082,5.070903301239014,0.665727972984314,2.5650546550750732,1.2549257278442383,-1.796730399131775
70.6902847290039,60.70830535888672,62.68114471435547,-10.896981239318848,5.816183090209961,0.12518927454948425,2.4659371376037598,1.0920227766036987,-1.772497296333313
71.80280303955078,61.8419189453125,62.949378967285156,-11.382210731506348,6.3021392822265625,-0.4103553593158722,2.1535120010375977,0.974025547504425,-1.7663402557373047
72.88909912109375,62.85313034057617,63.29923629760742,-11.969141006469727,7.145938873291016,-1.079754114151001,1.838632583618164,0.9767696857452393,-1.8017750978469849
73.88399505615234,63.38702392578125,63.620018005371094,-12.278541564941406,8.003204345703125,-1.6273627281188965,1.6682708263397217,0.8133561015129089,-1.5501258373260498
74.74726867675781,63.59316635131836,64.07999420166016,-11.98750114440918,7.9237236976623535,-1.8870044946670532,1.405951738357544,0.6671283841133118,-1.070618987083435
75.30595397949219,63.723487854003906,64.39229583740234,-12.146626472473145,7.867091178894043,-1.8168302774429321,1.053444743156433,0.5784478187561035,-0.7254934906959534
75.57862091064453,63.84208679199219,64.41959381103516,-11.608380317687988,7.182121276855469,-1.6044312715530396,0.8412647247314453,0.3757745623588562,-0.4968006908893585
75.70736694335938,64.00421905517578,64.43392181396484,-11.762008666992188,6.859923839569092,-1.7750144004821777,0.6448794603347778,0.26977792382240295,-0.42212945222854614
75.64261627197266,64.02054595947266,64.37355041503906,-11.79926872253418,6.9944658279418945,-1.840957760810852,0.39814862608909607,0.18344712257385254,-0.3432583808898926
75.45592498779297,63.82813262939453,64.27140045166016,-11.581026077270508,7.083451747894287,-1.974241852760315,0.22828568518161774,0.04491714388132095,-0.1148604229092598
75.2638931274414,63.53200149536133,64.34937286376953,-11.391545295715332,7.0619964599609375,-1.8504014015197754,0.0044284388422966,-0.026760250329971313,0.07957091182470322
75.13809967041016,63.05370330810547,64.66720581054688,-10.859055519104004,7.190453052520752,-1.9675267934799194,-0.23257671296596527,-0.006461147218942642,0.3233802020549774
74.87993621826172,62.43170166015625,65.04237365722656,-10.471728324890137,7.194092750549316,-1.973202109336853,-0.47740238904953003,0.0010931893484666944,0.6290614008903503
74.51651763916016,61.74958419799805,65.43531036376953,-10.539395332336426,7.108559608459473,-1.5669479370117188,-0.786763608455658,-0.005088401027023792,0.8223655819892883
74.07125091552734,60.85469055175781,65.69119262695312,-11.343483924865723,7.235871315002441,-1.3844547271728516,-0.9295654892921448,-0.007481561508029699,1.0414209365844727
73.2831802368164,59.78753662109375,65.6383285522461,-11.677342414855957,6.99082612991333,-0.7630228996276855,-1.024683952331543,-0.2203613966703415,1.3437631130218506
72.21939849853516,58.874385833740234,65.49516296386719,-11.87509536743164,6.476444244384766,-0.576983630657196,-1.194128394126892,-0.3582764267921448,1.4775197505950928
70.8462142944336,58.060035705566406,65.18751525878906,-11.840167999267578,7.204509735107422,-0.3031100034713745,-1.467809796333313,-0.46571075916290283,1.353944182395935
69.51880645751953,57.033905029296875,65.03573608398438,-10.47802734375,7.081666469573975,-0.30240723490715027,-1.6598807573318481,-0.6283666491508484,1.384047031402588
68.38125610351562,55.77376937866211,65.20388793945312,-9.852578163146973,7.342621803283691,-0.29230955243110657,-1.8953922986984253,-0.5910166501998901,1.6106442213058472
67.24169921875,54.39694595336914,65.29375457763672,-9.110236167907715,7.178138256072998,-0.16592977941036224,-1.9968184232711792,-0.6832093000411987,1.8805601596832275
66.12544250488281,53.005794525146484,65.4275131225586,-8.946216583251953,6.579767227172852,0.09012965112924576,-2.01460599899292,-0.7339255213737488,1.991819143295288
65.02835083007812,51.47903060913086,65.70087432861328,-9.314253807067871,6.065103530883789,0.537553608417511,-2.1166343688964844,-0.788367748260498,2.1751811504364014
63.98573303222656,49.9805793762207,66.09074401855469,-8.665862083435059,5.318902969360352,0.7802252769470215,-2.189192295074463,-0.7867217659950256,2.3646621704101562
62.869140625,48.61444854736328,66.35726928710938,-8.278636932373047,4.810074329376221,1.2208986282348633,-2.2760746479034424,-0.7419744729995728,2.355774402618408
61.70771408081055,47.28684997558594,66.34186553955078,-7.682106018066406,4.401413917541504,1.8498167991638184,-2.2163538932800293,-0.8526274561882019,2.2740612030029297
60.56526184082031,46.06114196777344,66.18053436279297,-7.516599655151367,4.0605974197387695,2.3530964851379395,-2.060424327850342,-0.9919521808624268,2.1310861110687256
59.54023361206055,44.94143295288086,66.10839080810547,-7.039210796356201,4.0735063552856445,2.635394811630249,-1.9366320371627808,-1.06990385055542,1.9328733682632446
58.617244720458984,43.948448181152344,66.20589447021484,-5.793959140777588,3.3980066776275635,2.7571606636047363,-1.8164926767349243,-0.9845631122589111,1.854060411453247
57.69758605957031,43.159725189208984,66.3145523071289,-5.8149261474609375,3.5814244747161865,3.3262033462524414,-1.8525294065475464,-0.8772608041763306,1.628663420677185
57.00046157836914,42.42378234863281,66.49424743652344,-5.179801940917969,3.586989641189575,3.8324265480041504,-1.700421690940857,-0.7328539490699768,1.4642043113708496
56.34904479980469,41.73143005371094,66.67315673828125,-4.598194122314453,2.972379207611084,4.425962448120117,-1.5846136808395386,-0.6513136625289917,1.3690866231918335
55.8474235534668,41.21568298339844,66.90157318115234,-4.858838081359863,2.855307102203369,5.038046836853027,-1.463715672492981,-0.5579512119293213,1.2328338623046875
55.449642181396484,40.97511291503906,67.12687683105469,-4.44240140914917,2.3792977333068848,5.406858921051025,-1.2618889808654785,-0.354570597410202,1.050466537475586
54.893768310546875,40.99626541137695,67.11697387695312,-3.8158767223358154,1.1772137880325317,6.0246663093566895,-1.1578419208526611,-0.20199203491210938,0.6946341395378113
54.35089874267578,41.15760803222656,66.90589904785156,-3.8553216457366943,1.772964358329773,6.742394924163818,-1.0636892318725586,-0.15446551144123077,0.31721067428588867
54.125274658203125,41.401161193847656,66.71058654785156,-3.278064727783203,2.1551246643066406,6.6173882484436035,-0.7986205816268921,-0.1231725886464119,-0.011261212639510632
54.16558837890625,41.8025016784668,66.59608459472656,-2.0020551681518555,1.7541924715042114,6.791360855102539,-0.4328835904598236,-0.0006582593778148293,-0.1638198047876358
54.1406364440918,42.50082778930664,66.07184600830078,-1.6728790998458862,2.1452531814575195,7.130178928375244,-0.1611286848783493,0.15886874496936798,-0.5017328262329102
54.080726623535156,43.299007415771484,64.90868377685547,-2.703536033630371,3.0143282413482666,6.980242729187012,0.3016877770423889,-0.004184267017990351,-1.046210527420044
54.14396667480469,44.07925033569336,63.59645080566406,-3.751164674758911,2.311466932296753,6.794702053070068,0.8137733936309814,-0.23591019213199615,-1.4552029371261597
54.29041290283203,44.989967346191406,62.357154846191406,-4.027796268463135,1.2822539806365967,6.671140193939209,1.1780805587768555,-0.3244372308254242,-1.6650214195251465
54.45729064941406,46.13602828979492,61.02735900878906,-4.191573143005371,0.9886910319328308,6.664504051208496,1.4093599319458008,-0.24468612670898438,-1.9793039560317993
54.778114318847656,47.37047576904297,59.61568832397461,-4.4471001625061035,0.6597398519515991,6.54516077041626,1.7248408794403076,-0.23928426206111908,-2.2526073455810547
55.319580078125,48.746360778808594,58.40869903564453,-5.183481693267822,0.3580300509929657,6.207806587219238,2.043562412261963,-0.14217577874660492,-2.456756353378296
56.090782165527344,50.19804382324219,57.5989990234375,-5.992168426513672,0.6849499344825745,5.642759323120117,2.2012741565704346,0.11460340023040771,-2.563265562057495
57.192752838134766,51.60755157470703,57.23720932006836,-5.901870250701904,1.253260850906372,4.68959379196167,2.2775323390960693,0.40721073746681213,-2.48995304107666
58.66590881347656,53.04032516479492,57.32831954956055,-5.699106693267822,2.1171107292175293,3.9209790229797363,2.3543522357940674,0.7192440032958984,-2.3304545879364014
60.40998458862305,54.531700134277344,57.743446350097656,-5.7912821769714355,2.636187791824341,3.2076592445373535,2.3872547149658203,1.0863207578659058,-2.209249258041382
62.16801452636719,56.02695846557617,58.168582916259766,-6.522145748138428,3.588620901107788,2.514475107192993,2.4468705654144287,1.3137233257293701,-2.1267244815826416
63.71444320678711,57.511356353759766,58.43147659301758,-7.485053539276123,4.3203582763671875,1.9829444885253906,2.412156820297241,1.3896647691726685,-2.154688835144043
65.23188018798828,58.8946533203125,58.70355224609375,-8.81892204284668,4.3425116539001465,1.5449070930480957,2.353524923324585,1.3282790184020996,-2.1564552783966064
66.82428741455078,60.176795959472656,59.12113952636719,-10.047117233276367,4.73868989944458,1.1685824394226074,2.3015410900115967,1.3289368152618408,-2.0665135383605957
68.23578643798828,61.337005615234375,59.42287063598633,-10.887750625610352,5.470066547393799,0.3769865334033966,2.20585298538208,1.2430516481399536,-1.9790973663330078
69.5708999633789,62.27580642700195,59.73326873779297,-11.505258560180664,6.252218723297119,-0.39514070749282837,2.0985054969787598,1.0962183475494385,-1.857749342918396
70.91781616210938,62.885860443115234,60.2608757019043,-11.837449073791504,6.772088050842285,-0.9520971179008484,1.9573752880096436,0.9725853800773621,-1.5576581954956055
72.09972381591797,63.22263717651367,60.86711502075195,-12.435308456420898,7.312263011932373,-1.280141830444336,1.6765707731246948,0.8735833168029785,-1.1568272113800049
73.00377655029297,63.36738967895508,61.32844161987305,-12.518468856811523,7.94271993637085,-1.6596280336380005,1.404981255531311,0.731093168258667,-0.8009427189826965
73.53175354003906,63.3482780456543,61.54266357421875,-12.775625228881836,8.201562881469727,-1.7993642091751099,1.1331785917282104,0.5551084876060486,-0.4850507378578186
73.51434326171875,63.25619888305664,61.34972381591797,-13.254989624023438,8.247818946838379,-1.7576426267623901,0.8613132238388062,0.3192099630832672,-0.233587384223938
73.1045913696289,63.1181755065918,60.892127990722656,-13.28464126586914,7.960814476013184,-1.6768975257873535,0.5434209108352661,0.03860915079712868,-0.13983120024204254
72.75544738769531,62.805763244628906,60.594749450683594,-12.27582836151123,7.663825035095215,-1.8907370567321777,0.3159794807434082,-0.13829700648784637,0.03339780122041702
72.4762954711914,62.32132339477539,60.52227783203125,-11.555276870727539,7.355295181274414,-1.9579007625579834,0.08147755265235901,-0.2148495316505432,0.2794657051563263
72.2762451171875,61.69472122192383,60.615943908691406,-11.06285572052002,7.030187606811523,-1.830078125,-0.13940206170082092,-0.23874644935131073,0.5443903207778931
72.09989166259766,61.000797271728516,60.825279235839844,-10.8294677734375,6.794355869293213,-1.6852697134017944,-0.27177688479423523,-0.24164211750030518,0.8014516830444336
71.85004425048828,60.265933990478516,61.146976470947266,-10.824986457824707,6.823189735412598,-1.425864338874817,-0.4951699376106262,-0.20749227702617645,0.9506610631942749
71.55428314208984,59.379512786865234,61.538719177246094,-11.040307998657227,6.955256462097168,-1.3145182132720947,-0.7010952830314636,-0.17856495082378387,1.155778408050537
71.05721282958984,58.34180450439453,61.871028900146484,-11.335249900817871,6.873868942260742,-1.0318316221237183,-0.9004871249198914,-0.1971568763256073,1.3717130422592163
70.29427337646484,57.17954635620117,62.06269836425781,-11.477752685546875,7.676657199859619,-0.8814873099327087,-1.1626302003860474,-0.2865692973136902,1.5964620113372803
69.38909912109375,55.90787887573242,62.216548919677734,-11.058182716369629,8.302599906921387,-0.9977661371231079,-1.34847092628479,-0.4242178499698639,1.7498383522033691
68.3844223022461,54.51469421386719,62.47624588012695,-10.593043327331543,8.0466947555542,-0.7262556552886963,-1.6117295026779175,-0.4987652599811554,1.984022855758667
67.22090911865234,53.151893615722656,62.71403121948242,-10.23148250579834,7.837414741516113,-0.4845420718193054,-1.8591523170471191,-0.5712595582008362,2.1273818016052246
65.93309783935547,51.81326675415039,62.95024871826172,-10.197855949401855,7.491588592529297,-0.17146897315979004,-2.1142494678497314,-0.6131041049957275,2.151297092437744
64.6561050415039,50.42525863647461,63.167789459228516,-9.28396987915039,6.372430801391602,0.3509882390499115,-2.3156001567840576,-0.6754430532455444,2.2179925441741943
63.45382308959961,49.042747497558594,63.25871276855469,-8.573249816894531,5.210402011871338,0.879462718963623,-2.3188724517822266,-0.7484210729598999,2.2335169315338135
62.22010040283203,47.65922164916992,63.10957717895508,-8.447465896606445,4.787752628326416,1.4816473722457886,-2.2111740112304688,-0.8987855315208435,2.2022995948791504
61.004615783691406,46.32608413696289,62.916717529296875,-8.08130168914795,4.206600189208984,1.9222278594970703,-2.057603597640991,-1.1113569736480713,2.109315872192383
60.01587677001953,45.077796936035156,63.05000305175781,-7.3227858543396,4.302964687347412,2.1137990951538086,-2.016608476638794,-1.101698875427246,2.043229341506958
59.31278991699219,43.8646240234375,63.478275299072266,-5.990067005157471,4.320251941680908,2.225700616836548,-1.931511402130127,-0.9495476484298706,2.0436007976531982
58.73733139038086,42.73320770263672,64.0667495727539,-4.620251655578613,3.0834105014801025,2.7216148376464844,-1.841570258140564,-0.7651350498199463,2.093036413192749
58.24356460571289,41.77001953125,64.66891479492188,-5.120573043823242,3.70939040184021,3.7081167697906494,-1.8066242933273315,-0.5614128112792969,2.0238571166992188
57.78932189941406,40.9326057434082,65.18978881835938,-4.995765686035156,3.3306195735931396,4.085483551025391,-1.6105015277862549,-0.4270261824131012,1.9031662940979004
57.21243667602539,40.23517608642578,65.65519714355469,-4.541595458984375,2.5369718074798584,4.611330509185791,-1.5932550430297852,-0.33309006690979004,1.7202140092849731
56.79087448120117,39.682456970214844,66.10814666748047,-4.9138689041137695,3.086156129837036,5.361040115356445,-1.5544636249542236,-0.23937709629535675,1.5393469333648682
56.40852355957031,39.38960647583008,66.36825561523438,-3.879725456237793,2.0056686401367188,5.716331481933594,-1.2840697765350342,-0.1212882325053215,1.3187910318374634
55.896888732910156,39.35385513305664,66.34732818603516,-3.937744379043579,1.4895923137664795,6.6428608894348145,-1.2286620140075684,-0.11213638633489609,0.8392775058746338
55.66771697998047,39.46676254272461,66.24394989013672,-3.5991077423095703,1.903151512145996,7.137308120727539,-0.9239813685417175,-0.08308219164609909,0.5173693895339966
55.58464050292969,39.77252960205078,66.02477264404297,-2.83624267578125,2.0402331352233887,6.931299686431885,-0.589160680770874,-0.04168755188584328,0.08251884579658508
55.61957550048828,40.22047424316406,65.74922180175781,-2.1263203620910645,2.5597920417785645,7.050893306732178,-0.2345801144838333,0.007498452439904213,-0.1701679527759552
55.55483627319336,40.98385238647461,65.13031768798828,-2.073530912399292,2.7968010902404785,6.921383857727051,0.017249053344130516,0.08068189024925232,-0.5991032719612122
55.491024017333984,41.892120361328125,64.17191314697266,-3.0895767211914062,3.012146234512329,6.841331481933594,0.3407900333404541,-0.004543017596006393,-1.1323169469833374
55.571449279785156,42.795867919921875,63.233673095703125,-4.101024627685547,2.347759485244751,6.4974045753479,0.6727094054222107,-0.05937321484088898,-1.4825581312179565
55.802459716796875,43.68783187866211,62.35360336303711,-4.408506870269775,2.0732991695404053,6.483271598815918,0.91290283203125,-0.0597735159099102,-1.633888840675354
56.21597671508789,44.65902328491211,61.44111633300781,-4.32908821105957,1.980880856513977,6.467580795288086,1.2182332277297974,-0.055391281843185425,-1.7631350755691528
56.80497741699219,45.758827209472656,60.59095001220703,-4.590788841247559,1.7727752923965454,6.338160514831543,1.5292999744415283,-0.015269972383975983,-1.912253737449646
57.62794494628906,46.94586181640625,59.94501876831055,-4.9303388595581055,1.3395181894302368,6.0387654304504395,1.7742924690246582,0.13653771579265594,-2.025023937225342
58.65125274658203,48.16580581665039,59.43259811401367,-5.1256914138793945,1.4939922094345093,5.455020427703857,2.0155673027038574,0.3072763979434967,-2.042869806289673
59.80710983276367,49.47412109375,58.9779052734375,-5.419095993041992,1.9618010520935059,4.91459321975708,2.2141404151916504,0.4291118085384369,-2.100640296936035
61.137939453125,50.89134979248047,58.73491287231445,-5.587645053863525,2.349146842956543,4.081080436706543,2.4229118824005127,0.5897944569587708,-2.1645264625549316
62.55889892578125,52.344085693359375,58.71410369873047,-5.94377326965332,2.9203691482543945,3.3022918701171875,2.4478752613067627,0.8146020174026489,-2.2135159969329834
64.05615234375,53.721527099609375,58.829978942871094,-6.6688947677612305,3.885892868041992,2.458592414855957,2.4941208362579346,0.9518449306488037,-2.183013439178467
65.64019012451172,54.980018615722656,59.206790924072266,-7.864113807678223,4.5174736976623535,1.845976710319519,2.4133148193359375,1.0467332601547241,-2.114152431488037
67.44302368164062,56.04378890991211,59.95853805541992,-8.800310134887695,5.075430393218994,1.2093162536621094,2.317491054534912,1.1845619678497314,-1.884116291999817
69.18814086914062,56.97321701049805,60.78093338012695,-9.860363960266113,5.859506607055664,0.7502036094665527,2.1723532676696777,1.2748810052871704,-1.624891757965088
70.62593841552734,57.84199905395508,61.4057502746582,-10.863534927368164,6.992974281311035,0.10528802126646042,2.0039162635803223,1.2375205755233765,-1.462384819984436
71.66593170166016,58.60169219970703,61.82209777832031,-11.468894004821777,7.815889835357666,-0.5145977139472961,1.7623475790023804,1.1070261001586914,-1.378308653831482
72.450927734375,59.15819549560547,62.198307037353516,-11.520475387573242,8.120283126831055,-1.0016120672225952,1.4376883506774902,0.922812819480896,-1.2109788656234741
73.1613998413086,59.45995330810547,62.578643798828125,-11.75655460357666,8.271973609924316,-1.3292313814163208,1.131824016571045,0.8068146109580994,-0.9828555583953857
73.74150085449219,59.42395782470703,62.784934997558594,-12.007913589477539,8.220147132873535,-1.3877391815185547,0.9771280884742737,0.5930638313293457,-0.6259571313858032
74.08634185791016,59.292823791503906,62.89149475097656,-12.233354568481445,8.242167472839355,-1.5046449899673462,0.8596742153167725,0.36287954449653625,-0.2440447211265564
74.10755157470703,59.303829193115234,62.92585754394531,-12.045812606811523,8.272680282592773,-1.626867413520813,0.5620125532150269,0.24856242537498474,-0.13585563004016876
73.97189331054688,59.18804931640625,62.8531494140625,-11.64140796661377,8.386025428771973,-1.8876105546951294,0.28459426760673523,0.14452549815177917,-0.11563829332590103
73.80274200439453,58.82216262817383,62.79090118408203,-11.032045364379883,8.03249740600586,-1.9127540588378906,0.15123732388019562,-0.01848936453461647,0.15850535035133362
73.59371185302734,58.41655349731445,62.860321044921875,-11.057354927062988,7.3234357833862305,-1.596940279006958,-0.06639289855957031,-0.07432367652654648,0.3253086805343628
73.40885925292969,57.89612579345703,63.07091522216797,-10.70296573638916,7.2988786697387695,-1.594543695449829,-0.24852339923381805,-0.08925063163042068,0.5319812297821045
73.15193939208984,57.29629898071289,63.34368896484375,-10.666882514953613,7.421838283538818,-1.5538265705108643,-0.45077598094940186,-0.06398839503526688,0.7207115888595581
72.70327758789062,56.56571960449219,63.513580322265625,-10.970611572265625,7.577013969421387,-1.2959274053573608,-0.646486759185791,-0.08974681049585342,0.8882359862327576
72.01245880126953,55.713623046875,63.59922409057617,-11.208714485168457,7.485156536102295,-0.9297001957893372,-0.8334272503852844,-0.20204314589500427,1.1000725030899048
71.1175537109375,54.876548767089844,63.666343688964844,-10.975689888000488,7.2461724281311035,-0.44781407713890076,-1.1389440298080444,-0.2665562927722931,1.2330405712127686
70.19152069091797,53.96355056762695,63.734989166259766,-10.659652709960938,7.651594161987305,-0.44925957918167114,-1.3495887517929077,-0.345897912979126,1.2749682664871216
69.26708984375,52.854896545410156,63.906951904296875,-10.064953804016113,7.415063858032227,-0.30146512389183044,-1.4989800453186035,-0.39471521973609924,1.4862130880355835
68.21711730957031,51.64126205444336,64.0594482421875,-10.175928115844727,8.099169731140137,-0.044416431337594986,-1.7029331922531128,-0.4594513177871704,1.6669992208480835
67.16178131103516,50.4001579284668,64.25624084472656,-9.132292747497559,7.5022735595703125,0.1475939005613327,-1.836215853691101,-0.5601136088371277,1.8532392978668213
66.07003784179688,49.256282806396484,64.49603271484375,-8.710488319396973,7.042715072631836,0.4862233102321625,-1.9715367555618286,-0.5280870199203491,1.9024285078048706
64.90507507324219,48.161643981933594,64.64691925048828,-8.268831253051758,6.54470157623291,0.9588725566864014,-2.089539051055908,-0.5880317091941833,1.8878546953201294
63.80215835571289,47.059059143066406,64.79540252685547,-8.198263168334961,5.928259372711182,1.3755570650100708,-2.108769416809082,-0.5879918932914734,1.82615065574646
62.77749252319336,45.82267761230469,65.01898193359375,-7.70351505279541,5.500632286071777,1.64568293094635,-2.0946264266967773,-0.6870255470275879,1.8719626665115356
61.93084716796875,44.55072784423828,65.42864227294922,-7.433735370635986,5.3543596267700195,1.8744168281555176,-2.080580472946167,-0.6365102529525757,2.007262945175171
61.10821533203125,43.333213806152344,65.81822967529297,-7.212992191314697,4.968424320220947,2.127520799636841,-2.0012848377227783,-0.6358596086502075,2.063600540161133
60.275089263916016,42.22077941894531,66.28971862792969,-6.458982944488525,4.54386043548584,2.4137868881225586,-1.9865542650222778,-0.5857902765274048,2.0465219020843506
59.54069137573242,41.17293930053711,66.79586791992188,-5.9376068115234375,4.373847484588623,3.1267762184143066,-2.028895139694214,-0.48121288418769836,2.004695415496826
58.94832229614258,40.192626953125,67.22613525390625,-5.860862731933594,3.9977922439575195,3.5937461853027344,-1.830398678779602,-0.4611853361129761,1.9511710405349731
58.27997589111328,39.40858840942383,67.60511779785156,-5.460982322692871,3.2085306644439697,4.31304407119751,-1.721724033355713,-0.4068118631839752,1.8172436952590942
57.7234992980957,38.84111404418945,67.92378997802734,-5.471795082092285,3.720512628555298,5.152007102966309,-1.6992576122283936,-0.3404844105243683,1.5671727657318115
57.39348602294922,38.434364318847656,68.17355346679688,-4.068203449249268,2.63136887550354,5.211912155151367,-1.3451107740402222,-0.23880811035633087,1.318051815032959
57.034645080566406,38.102867126464844,68.36224365234375,-4.206841468811035,2.1002719402313232,5.900406837463379,-1.203476071357727,-0.19866442680358887,1.0316957235336304
56.9511833190918,37.782440185546875,68.65267181396484,-4.253028392791748,2.459902763366699,6.353546142578125,-0.9714385867118835,-0.14531198143959045,0.914358377456665
57.1079216003418,37.49829864501953,69.06192779541016,-3.7735931873321533,2.6950438022613525,6.395471096038818,-0.6896833181381226,-0.025944164022803307,0.8059223890304565
57.33563995361328,37.29842758178711,69.52617645263672,-3.6648592948913574,2.952092409133911,6.4774489402771,-0.44575315713882446,0.08359415829181671,0.8331843018531799
57.437103271484375,37.42580795288086,69.78721618652344,-3.3748536109924316,2.638296365737915,6.638120174407959,-0.3394157290458679,0.24213086068630219,0.6153994798660278
57.50149917602539,37.71449279785156,69.67779541015625,-3.6246068477630615,3.253021478652954,6.995436668395996,-0.20733267068862915,0.26156124472618103,0.22665967047214508
57.65060043334961,38.0267219543457,69.26602172851562,-3.3655009269714355,4.192612171173096,6.774984836578369,0.09630974382162094,0.1188846230506897,-0.11565723270177841
57.77049255371094,38.46294021606445,68.71435546875,-3.1444153785705566,4.896792411804199,6.172281265258789,0.3984532058238983,-0.04840407893061638,-0.4206072688102722
57.86592483520508,39.060951232910156,68.21007537841797,-3.5671305656433105,5.028442859649658,5.800054550170898,0.5039691925048828,-0.07019328325986862,-0.7418382167816162
58.13273620605469,39.63164138793945,67.84989929199219,-4.2996134757995605,4.574285507202148,5.4118194580078125,0.6146389245986938,-0.005969807971268892,-0.9261686205863953
58.634639739990234,40.05210494995117,67.66506958007812,-5.287602424621582,4.275576114654541,5.0578813552856445,0.757483184337616,0.047242358326911926,-0.9155771136283875
59.43571090698242,40.339054107666016,67.72744750976562,-5.6588945388793945,4.417550563812256,4.709252834320068,0.9435639381408691,0.11357492208480835,-0.7630056738853455
60.52669143676758,40.53510284423828,68.06918334960938,-5.579793453216553,4.37580680847168,4.5407891273498535,1.1459603309631348,0.2529648244380951,-0.536455512046814
61.842529296875,40.71426773071289,68.57732391357422,-5.343146324157715,4.331176280975342,4.560376167297363,1.3202451467514038,0.4136554002761841,-0.29146242141723633
63.34679412841797,41.003456115722656,69.15911102294922,-4.911986351013184,3.9837565422058105,4.513879776000977,1.5506401062011719,0.568528950214386,-0.18929722905158997
64.91658782958984,41.40742111206055,69.77885437011719,-5.1695380210876465,4.027021884918213,4.6001129150390625,1.7352632284164429,0.7516153454780579,-0.19226104021072388
66.46656036376953,41.884944915771484,70.36978912353516,-5.589797496795654,4.157907009124756,4.147845268249512,1.8459935188293457,0.8529149889945984,-0.2702767848968506
68.05365753173828,42.38906478881836,70.96939849853516,-5.880249500274658,4.641543865203857,3.5710229873657227,1.9108526706695557,0.9434753060340881,-0.359750896692276
69.65505981445312,42.87601852416992,71.5306625366211,-6.129854202270508,5.4351396560668945,2.9930877685546875,2.00439453125,0.9654563069343567,-0.4169777035713196
71.192138671875,43.37468338012695,72.02096557617188,-6.3391265869140625,5.808074951171875,2.6038992404937744,2.0393857955932617,0.9555821418762207,-0.4734974801540375
72.61518096923828,43.89678192138672,72.40296936035156,-6.990867614746094,6.19045352935791,2.3199098110198975,2.0637876987457275,0.8892927169799805,-0.5523965954780579
73.85147094726562,44.476295471191406,72.73625946044922,-7.677306175231934,6.362562656402588,1.856783390045166,1.9991456270217896,0.8084286451339722,-0.637497067451477
75.06172180175781,45.01657485961914,73.18290710449219,-8.13486385345459,6.854175090789795,1.5109418630599976,1.816303014755249,0.7738744616508484,-0.7620439529418945
76.40003967285156,45.320926666259766,73.79022979736328,-7.7293524742126465,7.396384239196777,0.8242173790931702,1.7453557252883911,0.8257402777671814,-0.6307408809661865
77.67535400390625,45.44464874267578,74.31848907470703,-7.7123870849609375,7.853853702545166,0.4976597726345062,1.659185528755188,0.7975170612335205,-0.45557108521461487
78.87635040283203,45.559288024902344,74.724609375,-7.912320613861084,7.962875843048096,0.4836540222167969,1.659621000289917,0.7003980278968811,-0.23658491671085358
79.89382934570312,45.909976959228516,74.99787902832031,-8.085688591003418,7.462214469909668,0.44462987780570984,1.5939220190048218,0.6146301031112671,-0.31385186314582825
80.76354217529297,46.33435821533203,75.21355438232422,-7.792199611663818,7.610305309295654,0.13047540187835693,1.4996415376663208,0.5261691212654114,-0.46173638105392456
81.50035095214844,46.733253479003906,75.45654296875,-7.770593643188477,7.957705974578857,-0.372672975063324,1.3395503759384155,0.47279196977615356,-0.5370654463768005
82.16138458251953,47.077091217041016,75.73206329345703,-7.983055114746094,8.28347396850586,-0.8000485897064209,1.1379941701889038,0.4499255418777466,-0.564477801322937
82.7342758178711,47.274864196777344,75.96361541748047,-7.973516941070557,8.625137329101562,-1.197133183479309,1.0046589374542236,0.4332410991191864,-0.515701413154602
83.11518859863281,47.33268356323242,76.11871337890625,-8.495323181152344,9.00536060333252,-1.3436996936798096,0.8381759524345398,0.33142533898353577,-0.3513301610946655
83.36421203613281,47.3625373840332,76.28112030029297,-8.8755521774292,9.061891555786133,-1.5825209617614746,0.6339277029037476,0.29130908846855164,-0.23978203535079956
83.43096923828125,47.319210052490234,76.33727264404297,-8.79333209991455,9.148529052734375,-1.6846871376037598,0.4320572018623352,0.23261986672878265,-0.1374596506357193
83.27645111083984,47.26543426513672,76.24060821533203,-8.754053115844727,9.328904151916504,-1.7614413499832153,0.2478080540895462,0.11132977902889252,-0.01675412617623806
82.90159606933594,47.309173583984375,76.02086639404297,-8.849946022033691,9.420331954956055,-1.7346054315567017,0.0399833545088768,-0.008320808410644531,-0.03867783024907112
82.39521789550781,47.352752685546875,75.75785064697266,-8.497182846069336,8.919544219970703,-1.599046230316162,-0.16335216164588928,-0.1342960149049759,-0.08313249051570892
81.8596420288086,47.349769592285156,75.56475067138672,-8.16496753692627,8.546741485595703,-1.422733187675476,-0.34158483147621155,-0.17819714546203613,-0.06892238557338715
81.24378204345703,47.28398895263672,75.36439514160156,-8.09307861328125,8.661202430725098,-1.3232829570770264,-0.5072333812713623,-0.18845169246196747,-0.03879540413618088
80.57957458496094,47.08161926269531,75.14579772949219,-8.034770011901855,8.429954528808594,-1.1183665990829468,-0.6506780385971069,-0.2468501329421997,0.04971541091799736
79.90677642822266,46.77926254272461,74.93214416503906,-8.062236785888672,8.54305362701416,-0.9172285795211792,-0.7346296310424805,-0.25897398591041565,0.22085127234458923
79.07051849365234,46.444541931152344,74.59562683105469,-8.033285140991211,8.42552661895752,-0.6331095695495605,-0.8169986009597778,-0.3328510820865631,0.3069067895412445
78.0944595336914,46.026397705078125,74.24394226074219,-8.170342445373535,8.169809341430664,-0.2896581292152405,-0.9486289024353027,-0.4355684816837311,0.41657769680023193
77.02787017822266,45.58274459838867,73.91658782958984,-8.029694557189941,7.8574137687683105,-0.07804951816797256,-1.126868724822998,-0.4641455411911011,0.5236181616783142
75.89115142822266,45.13222885131836,73.50516510009766,-7.938436985015869,8.053766250610352,0.2516930401325226,-1.272599697113037,-0.5339228510856628,0.5633248090744019
74.7522964477539,44.616973876953125,73.12934875488281,-7.828133583068848,7.937840938568115,0.40245914459228516,-1.3252090215682983,-0.6130111217498779,0.6076755523681641
73.626220703125,44.06666564941406,72.97736358642578,-7.302765369415283,7.335881233215332,0.6477636098861694,-1.4700853824615479,-0.6055789589881897,0.710067629814148
72.59288024902344,43.47848129272461,72.90347290039062,-7.0933380126953125,7.456759452819824,1.0712038278579712,-1.6347401142120361,-0.45832163095474243,0.7689377665519714
71.60577392578125,42.80137252807617,72.72476196289062,-7.029174327850342,6.795263290405273,1.300904631614685,-1.5509854555130005,-0.5430593490600586,0.8906458020210266
70.64362335205078,42.13197708129883,72.62285614013672,-7.319744110107422,7.046680927276611,1.8066380023956299,-1.5915417671203613,-0.4975477159023285,0.9370941519737244
69.72421264648438,41.455589294433594,72.51300811767578,-6.57415771484375,6.613215923309326,1.7610722780227661,-1.5186129808425903,-0.5545324087142944,1.0153568983078003
68.78792572021484,40.9074821472168,72.43157196044922,-6.080547332763672,6.428992748260498,2.1514880657196045,-1.5482176542282104,-0.48148313164711,0.987044095993042
67.8226318359375,40.42695999145508,72.26318359375,-6.0843586921691895,6.351044178009033,2.410046100616455,-1.5109022855758667,-0.5208449363708496,0.8830589652061462
66.93262481689453,39.97099304199219,72.2109146118164,-5.888269901275635,5.870668888092041,2.5545108318328857,-1.5276235342025757,-0.4878016710281372,0.8029261827468872
66.12492370605469,39.42618179321289,72.20059204101562,-6.166213512420654,6.605514049530029,2.5993359088897705,-1.4764072895050049,-0.4135424792766571,0.787256121635437
65.40278625488281,38.728126525878906,72.23751831054688,-6.516148090362549,6.6858015060424805,2.796820878982544,-1.4494426250457764,-0.4725837707519531,0.8811641335487366
64.873291015625,37.961585998535156,72.31685638427734,-6.0698652267456055,6.12913179397583,2.884539842605591,-1.3267149925231934,-0.39958521723747253,1.0401313304901123
64.35133361816406,37.17378616333008,72.26856231689453,-6.144337177276611,6.440295219421387,3.1666061878204346,-1.134780764579773,-0.5372728109359741,1.1005666255950928
63.930416107177734,36.4733772277832,72.3320083618164,-5.533919334411621,5.605711936950684,3.8702375888824463,-1.04830801486969,-0.5135442018508911,1.159070372581482
63.49778366088867,35.918663024902344,72.29354858398438,-4.989428997039795,5.524376392364502,3.922010898590088,-0.88788241147995,-0.480719655752182,1.0815188884735107
63.10198211669922,35.494117736816406,72.28081512451172,-5.26121187210083,5.367809772491455,4.843484878540039,-0.8750782012939453,-0.5148000121116638,0.9235373735427856
62.852294921875,35.24077224731445,72.38938903808594,-4.405209541320801,4.175477504730225,4.510909080505371,-0.6878311038017273,-0.32382363080978394,0.813518762588501
62.542938232421875,35.05727767944336,72.3329849243164,-4.946564674377441,4.497537612915039,5.447861671447754,-0.7340911030769348,-0.25901371240615845,0.5738829970359802
62.494102478027344,34.8267822265625,72.24475860595703,-4.875804901123047,5.48522424697876,4.9898176193237305,-0.435608446598053,-0.29271382093429565,0.4876190721988678
62.41243362426758,34.7201042175293,72.22688293457031,-4.405938148498535,4.799957752227783,4.93350887298584,-0.29374396800994873,-0.2675197422504425,0.3883848786354065
62.419219970703125,34.770023345947266,72.22483825683594,-4.099912166595459,4.532323837280273,5.336520195007324,-0.2652159631252289,-0.139081209897995,0.2545967698097229
62.5634880065918,34.967708587646484,72.07575988769531,-3.741260290145874,4.651850700378418,5.308290958404541,-0.01354739349335432,-0.09641164541244507,0.05643201246857643
62.666534423828125,35.32118225097656,71.77519989013672,-3.9141006469726562,4.881985664367676,5.486368179321289,0.15080054104328156,-0.07786714285612106,-0.2043944001197815
62.76889419555664,35.77375030517578,71.35124206542969,-4.1485276222229,5.392571449279785,5.082836151123047,0.3198428750038147,-0.12068765610456467,-0.4823877811431885
62.93329620361328,36.243839263916016,70.96687316894531,-4.385292053222656,5.385016441345215,4.770378589630127,0.442079097032547,-0.13520869612693787,-0.6983695030212402
63.2963752746582,36.69194030761719,70.68561553955078,-4.495395183563232,4.830191612243652,4.753135681152344,0.5616781115531921,-0.09871460497379303,-0.7600873112678528
63.8607063293457,37.20656204223633,70.37863159179688,-4.417243480682373,4.5538763999938965,4.936232566833496,0.8089023232460022,-0.04086479917168617,-0.8121683597564697
64.51819610595703,37.860877990722656,70.0126724243164,-4.301619052886963,4.28338623046875,5.117908954620361,1.0633078813552856,-0.049571357667446136,-0.9399356245994568
65.34231567382812,38.60072326660156,69.72151947021484,-4.409648895263672,3.9243924617767334,4.92276668548584,1.2847826480865479,0.043363090604543686,-1.1191703081130981
66.34770202636719,39.307029724121094,69.49393463134766,-4.744907379150391,3.5478367805480957,4.985576152801514,1.535913109779358,0.08843433856964111,-1.1553293466567993
67.47722625732422,40.19296646118164,69.37260437011719,-4.709956169128418,3.411294937133789,4.932143688201904,1.7569539546966553,0.16915839910507202,-1.2118877172470093
68.71003723144531,41.366127014160156,69.36506652832031,-4.112574577331543,3.5720064640045166,4.454351902008057,1.8901513814926147,0.3691530227661133,-1.4251750707626343
70.02839660644531,42.664222717285156,69.35179138183594,-3.980466842651367,4.003931045532227,3.9269890785217285,2.0337295532226562,0.5562742352485657,-1.6810168027877808
71.37330627441406,44.01778793334961,69.32877349853516,-4.92699670791626,3.9363999366760254,3.606175184249878,2.178969383239746,0.598233163356781,-1.8619189262390137
72.69564056396484,45.50614547729492,69.46112823486328,-6.068838119506836,4.351394176483154,2.8795876502990723,2.23144268989563,0.7112633585929871,-2.0557498931884766
74.01808166503906,46.98051452636719,69.8368148803711,-6.726799011230469,5.060892581939697,1.957495093345642,2.0966551303863525,0.8488250970840454,-2.219536542892456
75.48130798339844,48.256980895996094,70.45789337158203,-6.810362815856934,6.174089431762695,1.0074758529663086,1.973867416381836,1.0452734231948853,-2.1606147289276123
76.94384002685547,49.347713470458984,71.0622329711914,-7.39006233215332,6.5814313888549805,0.5607859492301941,1.8868993520736694,1.0962932109832764,-2.0025064945220947
78.45915985107422,50.27635192871094,71.71018981933594,-8.108954429626465,7.143411636352539,0.18976141512393951,1.85286545753479,1.0734152793884277,-1.8341833353042603
79.98880767822266,50.969993591308594,72.44499206542969,-8.530655860900879,7.07927131652832,-0.43089595437049866,1.8190194368362427,1.074493408203125,-1.5932759046554565
81.35603332519531,51.44316101074219,73.14214324951172,-9.291739463806152,7.664270877838135,-0.8200392127037048,1.7186634540557861,1.0151365995407104,-1.2739585638046265
82.42890167236328,51.869937896728516,73.72480010986328,-9.469725608825684,8.132247924804688,-1.105464220046997,1.5442835092544556,0.9352267980575562,-1.0073403120040894
83.15233612060547,52.36668395996094,74.09898376464844,-9.926651000976562,8.653526306152344,-1.4059146642684937,1.2535629272460938,0.8027608394622803,-0.9111762642860413
83.63887023925781,52.83946228027344,74.29609680175781,-10.181513786315918,9.148727416992188,-1.8329864740371704,1.0379260778427124,0.6393028497695923,-0.9019007086753845
83.8398208618164,53.14518737792969,74.33187103271484,-10.405744552612305,9.459355354309082,-2.163639545440674,0.789849579334259,0.46615326404571533,-0.8029369115829468
83.81659698486328,53.28242111206055,74.2493667602539,-10.88458251953125,9.50731372833252,-2.4156148433685303,0.5485315322875977,0.26707980036735535,-0.6232997179031372
83.6426773071289,53.296207427978516,74.14805603027344,-10.898589134216309,9.526968002319336,-2.5400264263153076,0.31626060605049133,0.13549922406673431,-0.4256846308708191
83.31562042236328,53.17910385131836,74.02722930908203,-10.625560760498047,9.620190620422363,-2.5731470584869385,0.07168595492839813,0.024641869589686394,-0.23129847645759583
82.92697143554688,52.86526870727539,73.94844055175781,-10.113593101501465,9.27328872680664,-2.5538527965545654,-0.15554913878440857,-0.042909394949674606,-0.0039637102745473385
82.49542999267578,52.40817642211914,73.94811248779297,-9.604538917541504,8.551348686218262,-2.320469856262207,-0.33892345428466797,-0.08620961755514145,0.3079988360404968
81.94120788574219,52.03038024902344,73.95972442626953,-9.857428550720215,8.342864990234375,-2.018017530441284,-0.566917896270752,-0.06431318819522858,0.4804825484752655
81.26151275634766,51.6140022277832,73.86009216308594,-10.077648162841797,8.530625343322754,-1.8528927564620972,-0.7531091570854187,-0.10669305920600891,0.4828203618526459
80.44998168945312,50.913909912109375,73.77765655517578,-9.71122932434082,8.485848426818848,-1.897899866104126,-0.860275387763977,-0.180288627743721,0.7018284201622009
79.4690933227539,50.121612548828125,73.80860900878906,-9.646757125854492,8.620597839355469,-1.643652319908142,-1.1938396692276,-0.21567001938819885,0.9745795130729675
78.41057586669922,49.3643798828125,73.85120391845703,-9.184534072875977,8.55903434753418,-1.381253957748413,-1.4176409244537354,-0.18089431524276733,1.0947288274765015
77.16236114501953,48.583770751953125,73.81140899658203,-8.861833572387695,8.54912281036377,-0.9183565974235535,-1.6787309646606445,-0.25220927596092224,1.184161901473999
75.90704345703125,47.81391906738281,73.71585845947266,-8.731952667236328,8.143444061279297,-0.47993552684783936,-1.860812783241272,-0.27478957176208496,1.2331900596618652
74.5940170288086,46.99781799316406,73.4923324584961,-8.47825813293457,7.8225226402282715,-0.18410086631774902,-1.881367802619934,-0.4113953709602356,1.2308682203292847
73.24158477783203,46.090187072753906,73.26788330078125,-8.238805770874023,7.289048194885254,0.22996357083320618,-1.9776097536087036,-0.4927227199077606,1.3166639804840088
71.87369537353516,45.200172424316406,72.97938537597656,-7.913597106933594,7.003346920013428,0.5031272172927856,-1.9759281873703003,-0.6262029409408569,1.3629754781723022
70.5282211303711,44.32564163208008,72.69886016845703,-7.802424430847168,6.3933796882629395,1.1024775505065918,-2.0236318111419678,-0.6768643856048584,1.334373950958252
69.29475402832031,43.42562484741211,72.41157531738281,-7.049265384674072,5.868358135223389,1.3793452978134155,-1.9522150754928589,-0.7831231355667114,1.3618718385696411
68.16004180908203,42.588130950927734,72.15652465820312,-6.470531940460205,5.50044584274292,1.8694274425506592,-1.8725861310958862,-0.780081570148468,1.3279550075531006
67.1080551147461,41.76573944091797,71.80693817138672,-6.198930740356445,5.617641448974609,2.328526496887207,-1.7546889781951904,-0.8458675742149353,1.2782471179962158
66.19490051269531,41.001529693603516,71.4802474975586,-5.875429630279541,5.1085333824157715,2.4924120903015137,-1.5407094955444336,-0.9071511626243591,1.2085012197494507
65.34416961669922,40.30378723144531,71.26107025146484,-5.601789474487305,4.7111992835998535,2.9676623344421387,-1.4271793365478516,-0.8667076230049133,1.129854440689087
64.56649780273438,39.700836181640625,71.08811950683594,-5.419830799102783,4.122137546539307,3.4854888916015625,-1.3480876684188843,-0.8138015866279602,1.0703253746032715
63.95601272583008,39.22921371459961,70.94557189941406,-5.332327842712402,4.871109962463379,3.9941298961639404,-1.2420896291732788,-0.7166140079498291,0.9146776795387268
63.51116943359375,38.858543395996094,70.83848571777344,-4.373276233673096,4.110980033874512,4.288825988769531,-1.0125389099121094,-0.6378811001777649,0.8128678202629089
63.031036376953125,38.698795318603516,70.68849182128906,-3.819563865661621,3.446756601333618,4.665603160858154,-0.8877419829368591,-0.5019862651824951,0.6189374327659607
62.655757904052734,38.698307037353516,70.53015899658203,-4.168278694152832,4.214752674102783,5.330407619476318,-0.7978314757347107,-0.4534367024898529,0.350128173828125
62.4747314453125,38.90165328979492,70.4789810180664,-2.9092888832092285,2.86952805519104,5.322892189025879,-0.5693683624267578,-0.25200966000556946,0.17119842767715454
62.33460998535156,39.31725311279297,70.30982971191406,-3.267622470855713,3.018139600753784,6.031399726867676,-0.48673540353775024,-0.10870111733675003,-0.16931091248989105
62.520328521728516,39.76034927368164,70.12368774414062,-3.2854790687561035,3.9671499729156494,5.7927985191345215,-0.1380310356616974,-0.020564736798405647,-0.4093095064163208
62.821075439453125,40.17744064331055,69.97113800048828,-3.6962385177612305,3.550269365310669,5.478289604187012,0.18529678881168365,0.03721962496638298,-0.5616934299468994
63.272613525390625,40.516902923583984,69.91582489013672,-4.90741491317749,3.928560733795166,5.510697364807129,0.37571385502815247,0.08532124757766724,-0.5881355404853821
63.97795104980469,40.81184768676758,70.01412200927734,-4.940003395080566,4.067919731140137,5.011338233947754,0.6634023189544678,0.14645560085773468,-0.5347551703453064
64.84603881835938,41.149417877197266,70.32735443115234,-4.775954723358154,3.648252487182617,5.2708940505981445,0.8352248668670654,0.27436181902885437,-0.4564058184623718
65.95439910888672,41.58058547973633,70.8122787475586,-4.552924633026123,3.5502493381500244,5.359928131103516,0.9893227815628052,0.49023449420928955,-0.4296596348285675
67.27281188964844,42.06684494018555,71.35342407226562,-4.443880558013916,3.5158514976501465,5.307201385498047,1.226225733757019,0.6678299903869629,-0.4427237808704376
68.74645233154297,42.596073150634766,71.93160247802734,-4.729432106018066,3.2517597675323486,5.35649299621582,1.4389921426773071,0.7985833883285522,-0.48413461446762085
70.38288879394531,43.195518493652344,72.55198669433594,-5.124874114990234,3.2832767963409424,4.953210830688477,1.6835319995880127,0.9016798138618469,-0.5337638854980469
72.11082458496094,43.86463928222656,73.19378662109375,-5.752871036529541,3.774764060974121,4.347752571105957,1.8780044317245483,1.0006669759750366,-0.6528891324996948
73.91035461425781,44.47560501098633,73.87818145751953,-6.090919494628906,4.228761196136475,3.7760610580444336,2.051722764968872,1.0443544387817383,-0.7235141396522522
75.7309799194336,45.023799896240234,74.68977355957031,-6.167601108551025,4.862812042236328,3.016108989715576,2.136653184890747,1.0851030349731445,-0.6980619430541992
77.62120056152344,45.56278610229492,75.67354583740234,-6.346510410308838,5.016297340393066,2.5248489379882812,2.099097967147827,1.1762211322784424,-0.6826803088188171
79.652099609375,46.050086975097656,76.75032806396484,-6.582356929779053,5.430361747741699,1.888289451599121,2.120197296142578,1.2992017269134521,-0.6445861458778381
81.68330383300781,46.4642333984375,77.76293182373047,-7.094615936279297,6.287556171417236,1.0749521255493164,2.180623769760132,1.3256521224975586,-0.6058747172355652
83.64696502685547,46.8528938293457,78.78717041015625,-7.480891704559326,6.881371974945068,0.23238076269626617,2.2111175060272217,1.2928051948547363,-0.5509351491928101
85.51850128173828,47.196937561035156,79.86548614501953,-7.672712802886963,7.395961761474609,-0.4309828281402588,2.099430799484253,1.3321900367736816,-0.5699964165687561
87.28360748291016,47.32975769042969,80.90286254882812,-7.70626974105835,7.934162139892578,-1.0108400583267212,2.0025341510772705,1.295078158378601,-0.44994449615478516
88.89311981201172,47.33576583862305,81.88992309570312,-8.274972915649414,8.143372535705566,-1.3403100967407227,1.8520840406417847,1.2722375392913818,-0.27014783024787903
90.24471282958984,47.362510681152344,82.66685485839844,-8.673674583435059,8.614022254943848,-1.8391523361206055,1.6986640691757202,1.1823060512542725,-0.14537498354911804
91.23353576660156,47.48532485961914,83.13529968261719,-9.181685447692871,8.907999038696289,-2.3447036743164062,1.5190621614456177,1.0028727054595947,-0.16120077669620514
91.83088684082031,47.7116584777832,83.33434295654297,-9.673015594482422,9.671733856201172,-2.5909841060638428,1.3037911653518677,0.7279888987541199,-0.2049092948436737
92.10138702392578,48.00492477416992,83.3847885131836,-9.652562141418457,9.584455490112305,-3.1440463066101074,1.0006862878799438,0.49728965759277344,-0.358801931142807
92.11712646484375,48.23283767700195,83.33145904541016,-9.310332298278809,9.804285049438477,-3.4894373416900635,0.7081807851791382,0.27337852120399475,-0.3589130938053131
91.9668197631836,48.38530731201172,83.2302017211914,-9.215303421020508,9.750761985778809,-3.5428409576416016,0.389021635055542,0.14480729401111603,-0.39430463314056396
91.7378158569336,48.39286422729492,83.04850006103516,-8.964373588562012,9.57988166809082,-3.598464250564575,0.18932324647903442,-0.0011347238905727863,-0.22450770437717438
91.43235778808594,48.413692474365234,82.86832427978516,-8.800192832946777,9.33121109008789,-3.506361961364746,0.03821197897195816,-0.07064119726419449,-0.17492139339447021
91.01935577392578,48.39664840698242,82.74308013916016,-8.090249061584473,8.15582275390625,-3.0124762058258057,-0.14522188901901245,-0.14649297297000885,-0.07886255532503128
90.58023071289062,48.448673248291016,82.74530792236328,-7.961705207824707,7.7718353271484375,-2.713991403579712,-0.3722682297229767,-0.07523080706596375,-0.06197435036301613
90.08201599121094,48.565975189208984,82.66371154785156,-7.712701797485352,7.872453212738037,-2.468445301055908,-0.5402132272720337,-0.07717061042785645,-0.10739468783140182
89.5832748413086,48.635005950927734,82.50777435302734,-7.724160194396973,7.953164100646973,-2.247232675552368,-0.5927202701568604,-0.10193527489900589,-0.15792086720466614
88.9970932006836,48.561946868896484,82.26957702636719,-7.676431655883789,8.079917907714844,-2.083413600921631,-0.6114951372146606,-0.16414515674114227,-0.06945965439081192
88.29618835449219,48.447425842285156,82.0213851928711,-7.398810863494873,7.53170919418335,-1.5909647941589355,-0.6903175711631775,-0.22247743606567383,0.036976758390665054
87.54817962646484,48.41610336303711,81.7872314453125,-7.477161884307861,6.95641565322876,-0.8721421360969543,-0.8177946209907532,-0.24162830412387848,0.08751198649406433
86.79981231689453,48.483802795410156,81.4477310180664,-8.113260269165039,6.820460319519043,-0.4214339554309845,-0.8698813915252686,-0.2630123794078827,-0.005709399469196796
85.975341796875,48.48202896118164,81.00846862792969,-7.863496780395508,6.837754726409912,-0.33695217967033386,-0.8076046109199524,-0.37680763006210327,-0.04384271055459976
85.07762908935547,48.4360466003418,80.65373229980469,-7.388882160186768,7.006658554077148,0.09497708082199097,-0.9246363043785095,-0.4040709137916565,0.011880560778081417
84.14985656738281,48.473697662353516,80.29351806640625,-7.706378936767578,6.256865501403809,0.4407447874546051,-0.9843608736991882,-0.39727094769477844,-0.007997117936611176
83.1771469116211,48.58586502075195,79.85596466064453,-7.821600914001465,6.406798839569092,0.8502833843231201,-1.0865776538848877,-0.4259115159511566,-0.08509133756160736
82.27645111083984,48.62043762207031,79.32183074951172,-7.694517135620117,6.725573539733887,0.9417316913604736,-1.0205644369125366,-0.4633309841156006,-0.17334240674972534
81.38092803955078,48.44442367553711,78.80086517333984,-7.109157562255859,6.619185924530029,0.9858777523040771,-0.9358177781105042,-0.577894926071167,-0.04810753092169762
80.49341583251953,48.30237579345703,78.39798736572266,-6.851449012756348,5.951458930969238,1.249471664428711,-0.9655404686927795,-0.5323370099067688,0.09657321870326996
79.56747436523438,48.28291702270508,77.88915252685547,-7.410892009735107,6.114602565765381,1.6011543273925781,-0.9930331707000732,-0.5525339245796204,0.025470875203609467
78.76361083984375,48.22598648071289,77.39351654052734,-7.483086585998535,5.962934970855713,1.7424242496490479,-0.9226072430610657,-0.5783157348632812,0.00235048308968544
78.00819396972656,48.043216705322266,76.93022918701172,-7.491339206695557,6.143979549407959,1.5642590522766113,-0.825726330280304,-0.5679370164871216,0.013927054591476917
77.24614715576172,47.72341537475586,76.53997802734375,-7.133195400238037,6.067367076873779,1.6981582641601562,-0.8114035725593567,-0.611744225025177,0.19344958662986755
76.55109405517578,47.515907287597656,76.22563171386719,-7.117125988006592,5.745785236358643,1.89671790599823,-0.8390998840332031,-0.5276938080787659,0.26898932456970215
75.87064361572266,47.337501525878906,75.80308532714844,-7.437127113342285,5.744091987609863,2.1370413303375244,-0.779617190361023,-0.5336450934410095,0.19210539758205414
75.28874969482422,47.032718658447266,75.43897247314453,-7.366257190704346,5.703066825866699,2.1070151329040527,-0.7015663981437683,-0.561882734298706,0.2616141140460968
74.74629211425781,46.71083450317383,75.10850524902344,-7.458201885223389,6.1315836906433105,2.0137434005737305,-0.6267069578170776,-0.528972864151001,0.34009090065956116
74.12279510498047,46.42512130737305,74.7076416015625,-7.321157455444336,6.23612642288208,2.038738965988159,-0.6005394458770752,-0.5651572346687317,0.3635350465774536
73.4872817993164,46.20558166503906,74.33584594726562,-7.219110488891602,5.937556743621826,2.067566394805908,-0.6051652431488037,-0.5680177807807922,0.32952722907066345
72.89765167236328,46.024803161621094,73.99446105957031,-7.212972640991211,5.960597991943359,2.1233997344970703,-0.6339251399040222,-0.5421574115753174,0.278001993894577
72.3729248046875,45.84101867675781,73.6369400024414,-7.0623979568481445,6.341887474060059,2.030673027038574,-0.5696566700935364,-0.5203705430030823,0.23470979928970337
71.84589385986328,45.567203521728516,73.2791976928711,-7.234385013580322,6.495607852935791,2.037491798400879,-0.5305967330932617,-0.5389205813407898,0.2215735912322998
71.3585205078125,45.19971466064453,73.02224731445312,-7.188659191131592,6.389521598815918,1.9265685081481934,-0.5110188722610474,-0.5501394867897034,0.33586254715919495
70.9186019897461,44.838233947753906,72.83512115478516,-7.3511481285095215,6.523198127746582,2.0075809955596924,-0.5514876246452332,-0.4955946207046509,0.3965771496295929
70.52249145507812,44.4217414855957,72.64202117919922,-7.337463855743408,6.634108066558838,1.9122657775878906,-0.49688518047332764,-0.4833950996398926,0.4621996581554413
70.13787078857422,43.9301643371582,72.4759292602539,-7.143454074859619,6.750021934509277,2.068678617477417,-0.5095625519752502,-0.4841429591178894,0.5432389378547668
69.81307220458984,43.37896728515625,72.33822631835938,-6.768671989440918,7.067766189575195,1.8972220420837402,-0.4570799171924591,-0.48988115787506104,0.6582880020141602
69.49276733398438,42.833740234375,72.25037384033203,-6.796760082244873,6.921225547790527,1.9809486865997314,-0.4540886878967285,-0.4921453297138214,0.7312502861022949
69.23440551757812,42.31000900268555,72.2130355834961,-6.876180171966553,7.0040283203125,2.1803011894226074,-0.4575749337673187,-0.4397612512111664,0.7817802429199219
68.96525573730469,41.828495025634766,72.15534210205078,-6.650977611541748,6.476711273193359,2.1676528453826904,-0.40431588888168335,-0.42602959275245667,0.7888059616088867
68.65250396728516,41.41978073120117,72.15139770507812,-6.436027526855469,6.200067520141602,2.4384827613830566,-0.45560815930366516,-0.3894590139389038,0.7530992031097412
68.45037841796875,41.03730392456055,72.1811294555664,-6.2166619300842285,6.589932918548584,2.4888854026794434,-0.49016904830932617,-0.3070506155490875,0.6997696161270142
68.36769104003906,40.618961334228516,72.17796325683594,-6.0103983879089355,6.9285712242126465,2.4433786869049072,-0.3531864583492279,-0.2979484498500824,0.6894106864929199
68.28826141357422,40.238529205322266,72.21827697753906,-5.641206741333008,6.118320465087891,2.6493537425994873,-0.277518093585968,-0.286813884973526,0.6897373199462891
68.19100952148438,40.0062141418457,72.27925109863281,-5.465615749359131,5.856271266937256,2.897712469100952,-0.25981688499450684,-0.2124355584383011,0.6381010413169861
68.10344696044922,39.934818267822266,72.2691879272461,-5.3669538497924805,5.92836332321167,3.0287299156188965,-0.2563636004924774,-0.15606191754341125,0.45930179953575134
68.10525512695312,39.951011657714844,72.2144546508789,-4.955089092254639,6.098172664642334,3.097522258758545,-0.14455029368400574,-0.12282662093639374,0.2904558479785919
68.06858825683594,40.06285858154297,72.1147689819336,-4.821296215057373,5.987570285797119,3.0912561416625977,-0.046449899673461914,-0.09746814519166946,0.116496741771698
67.9814682006836,40.26654052734375,72.01287078857422,-4.949302673339844,5.886899471282959,3.2102742195129395,-0.048994280397892,-0.08318016678094864,-0.05583019182085991
67.98702239990234,40.50832748413086,71.97828674316406,-4.955019474029541,5.9362473487854,3.0912184715270996,-0.033346936106681824,-0.014565887860953808,-0.20752030611038208
68.1370849609375,40.667362213134766,72.00376892089844,-5.046751499176025,6.222803115844727,3.0850017070770264,0.03491399437189102,0.03972297161817551,-0.2562263309955597
68.38665771484375,40.70973587036133,72.07674407958984,-5.407167434692383,6.431783676147461,2.88670015335083,0.1666581779718399,0.07317569851875305,-0.19580765068531036
68.62484741210938,40.70835876464844,72.18869018554688,-5.90601921081543,6.386602878570557,2.86163592338562,0.22297342121601105,0.07556101679801941,-0.09319524466991425
68.87822723388672,40.7708625793457,72.34757995605469,-5.996492385864258,6.283852577209473,2.9670419692993164,0.23414017260074615,0.1266472339630127,-0.045982394367456436
69.16886901855469,40.91590881347656,72.51107025146484,-5.669447898864746,6.298813343048096,3.0622668266296387,0.25228145718574524,0.17673735320568085,-0.07227960228919983
69.52867889404297,41.13568115234375,72.6964340209961,-5.3166022300720215,6.17470121383667,3.1383249759674072,0.30462005734443665,0.23491492867469788,-0.13235892355442047
69.94673919677734,41.44054412841797,72.8937759399414,-5.197951793670654,5.986529350280762,3.184807777404785,0.36556705832481384,0.2983735203742981,-0.21257424354553223
70.42185974121094,41.84499740600586,73.08157348632812,-5.136824607849121,5.783265113830566,3.264855146408081,0.44384142756462097,0.35657817125320435,-0.32920971512794495
70.905029296875,42.373355865478516,73.23262023925781,-5.084814548492432,5.430380821228027,3.2895348072052,0.5356213450431824,0.40467026829719543,-0.46449655294418335
71.35897827148438,43.01870346069336,73.30569458007812,-5.422031879425049,5.24429178237915,3.3068478107452393,0.5771870613098145,0.43504735827445984,-0.6704689264297485
71.87350463867188,43.685096740722656,73.32774353027344,-5.831397533416748,5.342083930969238,3.109757423400879,0.6660425066947937,0.4174078106880188,-0.8295055627822876
72.4544677734375,44.34459686279297,73.37313079833984,-6.239201068878174,5.316696643829346,2.842376232147217,0.7843486070632935,0.4049091041088104,-0.9366077184677124
73.12425994873047,44.87032699584961,73.51915740966797,-6.759804725646973,5.7552490234375,2.432563304901123,0.8425534963607788,0.41233646869659424,-0.9718678593635559
73.98095703125,45.11835861206055,73.8525390625,-7.3077545166015625,6.465431213378906,2.0478146076202393,0.9345120191574097,0.43080469965934753,-0.7870687246322632
74.90164184570312,45.1861686706543,74.31550598144531,-7.177371501922607,6.816832542419434,1.6389529705047607,0.996453583240509,0.4880537986755371,-0.48290079832077026
75.73307037353516,45.2498664855957,74.76189422607422,-7.066765308380127,6.8498663902282715,1.669861912727356,0.9782178997993469,0.511019229888916,-0.26359477639198303
76.45532989501953,45.45001983642578,75.13740539550781,-7.1123456954956055,6.724405288696289,1.799334168434143,0.9212533235549927,0.5260510444641113,-0.18598680198192596
77.03607940673828,45.86124801635742,75.35578155517578,-7.457108020782471,6.6264472007751465,1.7612675428390503,0.8546340465545654,0.5090213418006897,-0.3039292097091675
77.4924087524414,46.33753204345703,75.39225769042969,-7.7675886154174805,7.085198402404785,1.5625112056732178,0.8086191415786743,0.4376660883426666,-0.517932116985321
77.92631530761719,46.59819412231445,75.61820220947266,-8.27828598022461,7.4914655685424805,1.11910080909729,0.7962349653244019,0.2959255278110504,-0.5864697694778442
75.95858764648438,44.36225128173828,75.61914825439453,-6.848904609680176,6.812249183654785,1.6171444654464722,-0.012469664216041565,-0.010833517648279667,0.01196209341287613
75.95147705078125,44.36822509765625,75.6220932006836,-6.754247665405273,6.8466572761535645,1.6460120677947998,-0.012481213547289371,-0.00515431072562933,0.0074999406933784485
75.95002746582031,44.3802490234375,75.62488555908203,-6.720864772796631,6.815332412719727,1.6816844940185547,-0.004617869853973389,-0.004332513082772493,-0.004590675234794617
75.95780181884766,44.38002395629883,75.63157653808594,-6.7849321365356445,6.843228816986084,1.6956706047058105,0.0037979334592819214,-0.004839897155761719,-0.0066287824884057045
75.96776580810547,44.3704948425293,75.64038848876953,-6.818819046020508,6.8368449211120605,1.6449083089828491,0.0023316594306379557,-0.002718717325478792,0.00399537431076169
75.97303771972656,44.36129379272461,75.64261627197266,-6.871491432189941,6.776609897613525,1.6464402675628662,0.0013569367583841085,-0.002645328873768449,0.008230284787714481
75.97526550292969,44.34547424316406,75.63482666015625,-6.959059715270996,6.7634968757629395,1.6681879758834839,0.0035902485251426697,-0.011281670071184635,0.014714338816702366
75.97088623046875,44.32910919189453,75.63409423828125,-6.980959892272949,6.833307266235352,1.6294541358947754,0.0010129064321517944,-0.014884212985634804,0.021759606897830963
75.96625518798828,44.31667709350586,75.64369201660156,-6.836265563964844,6.861857891082764,1.6105118989944458,-0.003194063901901245,-0.009717793203890324,0.019091742113232613
75.97007751464844,44.30954360961914,75.64557647705078,-6.714158535003662,6.829995155334473,1.640135407447815,0.0006524846539832652,-0.003797188401222229,0.024298392236232758
75.97904968261719,44.321773529052734,75.6436767578125,-6.719028949737549,6.806585311889648,1.6501389741897583,0.01098588015884161,-0.005718506872653961,0.010543130338191986
75.98588562011719,44.33190155029297,75.65094757080078,-6.790435314178467,6.795083045959473,1.6253167390823364,0.005399622488766909,-0.0033237042371183634,-0.005649589467793703
75.98690795898438,44.323448181152344,75.65525817871094,-6.8211212158203125,6.792266845703125,1.5844553709030151,6.146729447209509e-06,-0.0044424086809158325,-0.0007897615432739258
75.9843978881836,44.30901336669922,75.65403747558594,-6.849272727966309,6.814298152923584,1.6017556190490723,-0.002813339466229081,-0.006944313645362854,0.012391992844641209
75.9770736694336,44.30720520019531,75.65179443359375,-6.888033390045166,6.780484199523926,1.6409649848937988,-0.006992369890213013,-0.006981939543038607,0.013338960707187653
75.96974182128906,44.31675338745117,75.64984130859375,-6.848555564880371,6.780031204223633,1.6601251363754272,-0.0044379387982189655,-0.005806610453873873,0.0025162473320961
75.9732437133789,44.326480865478516,75.64932250976562,-6.776182174682617,6.814455986022949,1.6655669212341309,0.007388555444777012,-0.00661723455414176,-0.005244836211204529
75.98188018798828,44.32765579223633,75.6549301147461,-6.779481410980225,6.840846061706543,1.6584839820861816,0.005343930330127478,-0.006558374501764774,-0.008518993854522705
75.98229217529297,44.310428619384766,75.65338897705078,-6.947168827056885,6.783059120178223,1.6285098791122437,-0.002637505531311035,-0.0076770787127316,0.0018797817174345255
75.9759750366211,44.29045867919922,75.6366195678711,-6.9998321533203125,6.763510227203369,1.660425066947937,0.0002132728841388598,-0.016300009563565254,0.02128779888153076
75.96719360351562,44.286865234375,75.62879943847656,-6.943714618682861,6.782350063323975,1.6468256711959839,0.0036409131716936827,-0.02029799297451973,0.01476537436246872
75.96318054199219,44.285926818847656,75.6323013305664,-6.822764873504639,6.810377597808838,1.6648874282836914,0.00043790790368802845,-0.012914836406707764,0.0084215784445405
75.96763610839844,44.287864685058594,75.63178253173828,-6.686679840087891,6.847265243530273,1.62884521484375,0.008094684220850468,-0.009441561996936798,0.0064490363001823425
75.97988891601562,44.297889709472656,75.63809967041016,-6.684345245361328,6.844998836517334,1.629966139793396,0.015742890536785126,-0.007013977505266666,0.0005427748546935618
75.99774932861328,44.30089569091797,75.66252899169922,-6.718565464019775,6.825049877166748,1.6132880449295044,0.017266536131501198,-0.0006258487701416016,-0.01040958147495985
76.01925659179688,44.27834701538086,75.68319702148438,-6.767819881439209,6.8658647537231445,1.5407038927078247,0.007733888924121857,0.006506033707410097,0.008571707643568516
76.02316284179688,44.2606086730957,75.6776123046875,-6.779399394989014,6.851842403411865,1.5456026792526245,-0.007346273399889469,0.0032419345807284117,0.027370641008019447
76.00028991699219,44.26201629638672,75.6590576171875,-6.8841071128845215,6.840668678283691,1.597034215927124,-0.01658424735069275,-0.010106712579727173,0.018225423991680145
75.9660873413086,44.2692756652832,75.65240478515625,-6.899967670440674,6.8726806640625,1.5946104526519775,-0.02639852464199066,-0.013255701400339603,0.00586118595674634
75.94782257080078,44.27566909790039,75.6556396484375,-6.755523204803467,6.853633880615234,1.609246850013733,-0.012486428022384644,-0.009404496289789677,-0.004743412137031555
75.95455169677734,44.26988983154297,75.66065979003906,-6.736967086791992,6.90594482421875,1.629030704498291,-0.00463314400985837,-0.009585916996002197,-0.0014849008293822408
75.95604705810547,44.26482391357422,75.66529083251953,-6.784574031829834,6.740143775939941,1.6973227262496948,-0.009838119149208069,-0.0030931085348129272,0.008235686458647251
75.9549560546875,44.275108337402344,75.66410827636719,-6.835545539855957,6.697412014007568,1.7360928058624268,-0.0009037556010298431,-0.0036928807385265827,0.0011300669284537435
75.96112060546875,44.28276443481445,75.67272186279297,-6.841789245605469,6.762577533721924,1.7066277265548706,0.004747696220874786,-0.004754961002618074,-0.008127839304506779
75.9755630493164,44.266754150390625,75.6880111694336,-6.915555953979492,6.784889221191406,1.7004497051239014,0.010493583045899868,-0.002423300873488188,-0.0032808633986860514
75.99703216552734,44.234703063964844,75.68862915039062,-6.851393699645996,6.836689472198486,1.6574593782424927,0.014544466510415077,-0.004456565715372562,0.025648066774010658
76.00761413574219,44.22115707397461,75.6829605102539,-6.835633277893066,6.866730690002441,1.6749179363250732,0.015162491239607334,-0.01005604863166809,0.030786363407969475
76.01204681396484,44.22346496582031,75.68465423583984,-6.811161518096924,6.846195220947266,1.6742275953292847,0.015478022396564484,-0.007424131501466036,0.01877490244805813
76.02185821533203,44.22739028930664,75.6864013671875,-6.779885292053223,6.815878868103027,1.6575064659118652,0.016218239441514015,-0.006044283509254456,0.007189624477177858
76.02985382080078,44.224430084228516,75.6866226196289,-6.802250385284424,6.817546367645264,1.6342490911483765,0.012578628957271576,-0.007641315460205078,0.006224402692168951
76.03203582763672,44.21780014038086,75.68888854980469,-6.858286380767822,6.8239569664001465,1.5745099782943726,0.008562021888792515,-0.00796876847743988,0.007276797201484442
76.03036499023438,44.214054107666016,75.68528747558594,-6.819258689880371,6.839956283569336,1.5643056631088257,-0.00018440188432577997,-0.00562518835067749,0.011082553304731846
76.02338409423828,44.21676254272461,75.67422485351562,-6.735542297363281,6.858356475830078,1.5721838474273682,0.002373196417465806,-0.01271180808544159,0.004056653939187527
76.01666259765625,44.21728515625,75.67062377929688,-6.725271224975586,6.885108470916748,1.5518012046813965,0.0006724148406647146,-0.013266132213175297,0.002147443825379014
76.01055145263672,44.22614669799805,75.67446899414062,-6.73585319519043,6.849666118621826,1.5789698362350464,-0.00308342301286757,-0.007293373346328735,-0.0015459954738616943
76.01143646240234,44.2380485534668,75.67807006835938,-6.719753265380859,6.811395168304443,1.6003098487854004,0.0021336600184440613,-0.0035166742745786905,-0.01164116058498621
76.01802062988281,44.2456169128418,75.6758041381836,-6.726776123046875,6.800934791564941,1.6166170835494995,0.0034099449403584003,-0.003417582018300891,-0.008168444968760014
76.01288604736328,44.2581787109375,75.67201232910156,-6.748205184936523,6.800283432006836,1.6110705137252808,-0.005940347909927368,-0.004780665040016174,-0.014482812955975533
75.99620056152344,44.260311126708984,75.66450500488281,-6.915971755981445,6.794862270355225,1.601953387260437,-0.013601034879684448,-0.009539722464978695,-0.014932083897292614
75.97779083251953,44.253326416015625,75.65296936035156,-6.94105339050293,6.782248497009277,1.62107253074646,-0.013842063024640083,-0.014404953457415104,-0.0035662204027175903
75.96626281738281,44.252708435058594,75.64708709716797,-6.850962162017822,6.8337721824646,1.6552402973175049,-0.004394725430756807,-0.016526132822036743,-0.0010166318388655782
75.96763610839844,44.259437561035156,75.64962005615234,-6.749786376953125,6.82141637802124,1.6724791526794434,0.001582317054271698,-0.009326636791229248,-0.004242361057549715
75.97708892822266,44.269351959228516,75.64962768554688,-6.7474260330200195,6.8019256591796875,1.6959995031356812,0.008990057744085789,-0.00708848237991333,-0.009172038175165653
75.98943328857422,44.274715423583984,75.65242004394531,-6.788742542266846,6.850108623504639,1.6619946956634521,0.015602074563503265,-0.007117913570255041,-0.010326133109629154
76.00090026855469,44.277191162109375,75.65852355957031,-6.786149978637695,6.852400302886963,1.6294996738433838,0.011553801596164703,-0.0027600678149610758,-0.00717528210952878
76.00054168701172,44.289066314697266,75.65702056884766,-6.756922721862793,6.827169418334961,1.6128597259521484,-0.0024661424104124308,0.0008268282399512827,-0.005766749382019043
75.98773956298828,44.30361557006836,75.64939880371094,-6.891409873962402,6.809414863586426,1.6064144372940063,-0.0049322848208248615,-0.006390362977981567,-0.018944591283798218
75.97512817382812,44.297142028808594,75.64608001708984,-6.940460205078125,6.839508056640625,1.583629846572876,-0.008746237494051456,-0.011951476335525513,-0.011157245375216007
75.96087646484375,44.28886795043945,75.64847564697266,-6.883236885070801,6.851397514343262,1.5824589729309082,-0.015530736185610294,-0.009125098586082458,0.001638568937778473
75.95022583007812,44.29341506958008,75.65068054199219,-6.748682975769043,6.830420970916748,1.626380205154419,-0.013200940564274788,-0.00515766441822052,0.0009572134003974497
75.95187377929688,44.300045013427734,75.6533432006836,-6.735005855560303,6.839770317077637,1.6356394290924072,-0.0006485730991698802,-0.00569075345993042,-0.005549566354602575
75.96424865722656,44.29875183105469,75.65707397460938,-6.782557010650635,6.821844100952148,1.6389678716659546,0.007365085184574127,-0.003931671846657991,-0.0033158811274915934
75.97184753417969,44.29833984375,75.65265655517578,-6.811541557312012,6.814512729644775,1.6333565711975098,0.002207420766353607,-0.00465363310649991,0.001516006770543754
75.96511840820312,44.30256652832031,75.64439392089844,-6.826692581176758,6.752192974090576,1.6774911880493164,0.0003254041075706482,-0.010011717677116394,-0.002296268939971924
75.95999908447266,44.29745864868164,75.64221954345703,-6.923192977905273,6.796737194061279,1.6725218296051025,0.0045446669682860374,-0.013958661817014217,-0.003938377369195223
75.95880889892578,44.287384033203125,75.63874816894531,-6.911692142486572,6.771576404571533,1.6794695854187012,-0.002178177237510681,-0.010082871653139591,0.00855904072523117
75.95661163330078,44.29071044921875,75.6294937133789,-6.886814594268799,6.793883323669434,1.7147738933563232,0.008598157204687595,-0.013762712478637695,0.00466201500967145
75.96346282958984,44.29915237426758,75.62716674804688,-6.816379547119141,6.808957576751709,1.7153034210205078,0.013913773000240326,-0.011011213064193726,-0.0019490720005705953
75.97567749023438,44.30537414550781,75.6297378540039,-6.782172679901123,6.819611549377441,1.6816802024841309,0.020270610228180885,-0.010025128722190857,-0.009686500765383244
75.99057006835938,44.29428482055664,75.630615234375,-6.813085079193115,6.851990699768066,1.6323659420013428,0.018029099330306053,-0.00968538224697113,-0.002736598951742053
75.99349975585938,44.28054428100586,75.62167358398438,-6.827815055847168,6.838875770568848,1.605410099029541,0.007790327072143555,-0.012163073755800724,0.013391859829425812
75.98149108886719,44.278175354003906,75.61587524414062,-6.829249858856201,6.846559047698975,1.5924267768859863,0.001666508847847581,-0.0164911150932312,0.008223205804824829
75.97144317626953,44.27074432373047,75.62157440185547,-6.834550380706787,6.848873138427734,1.5809414386749268,-0.002857297658920288,-0.012925268150866032,0.007222407031804323
75.96985626220703,44.257022857666016,75.62657165527344,-6.793717861175537,6.838692665100098,1.5904433727264404,-0.0036761166993528605,-0.00955238938331604,0.012608431279659271
75.9689712524414,44.244483947753906,75.62247467041016,-6.79398775100708,6.820184707641602,1.6243693828582764,-0.005323067307472229,-0.009690224193036556,0.020361877977848053
75.96138000488281,44.23908615112305,75.61595153808594,-6.859498977661133,6.824048042297363,1.6197768449783325,-0.005089864134788513,-0.014216825366020203,0.015795044600963593
75.94752502441406,44.23078155517578,75.61223602294922,-6.895074367523193,6.802597522735596,1.6349706649780273,-0.015010685659945011,-0.013998150825500488,0.013266691006720066
75.93006134033203,44.216026306152344,75.60443878173828,-6.900190353393555,6.811064720153809,1.6356501579284668,-0.014555082656443119,-0.018041208386421204,0.015388614498078823
75.91740417480469,44.19375991821289,75.59469604492188,-6.881608009338379,6.816781997680664,1.64679753780365,-0.011665374971926212,-0.021913275122642517,0.02255309373140335
75.9091796875,44.17475128173828,75.5860595703125,-6.900296211242676,6.844127178192139,1.6748110055923462,-0.0039383769035339355,-0.02307780086994171,0.028996547684073448
75.9027328491211,44.16224670410156,75.5855484008789,-6.82830810546875,6.848319053649902,1.651755928993225,-0.007060915697365999,-0.021678954362869263,0.023582765832543373
75.89105987548828,44.1393928527832,75.59381103515625,-6.807434558868408,6.825153350830078,1.6536561250686646,-0.015245379880070686,-0.018741192296147346,0.024803729727864265
75.87666320800781,44.109397888183594,75.60377502441406,-6.880588054656982,6.84741735458374,1.6354173421859741,-0.02553277090191841,-0.01268759649246931,0.03817249462008476
75.86402130126953,44.0819091796875,75.60762786865234,-6.859591484069824,6.871485710144043,1.623334527015686,-0.022485479712486267,-0.012650713324546814,0.04077908396720886
75.85489654541016,44.049312591552734,75.60343170166016,-6.760798454284668,6.86630392074585,1.6330329179763794,-0.022263821214437485,-0.01624487154185772,0.04779529199004173
75.83844757080078,44.01886749267578,75.59920501708984,-6.752031326293945,6.900232315063477,1.652101993560791,-0.022404268383979797,-0.021518023684620857,0.05018766224384308
75.81757354736328,43.98637008666992,75.6055679321289,-6.804028034210205,6.839940071105957,1.6561667919158936,-0.029763957485556602,-0.020780041813850403,0.04868638142943382
75.80171966552734,43.93564224243164,75.61676025390625,-6.926745891571045,6.824141502380371,1.6603721380233765,-0.026668241247534752,-0.02165251038968563,0.055993545800447464
75.79913330078125,43.86730194091797,75.6267318725586,-6.875838279724121,6.842281818389893,1.6760103702545166,-0.01979917287826538,-0.021746011450886726,0.08138810098171234
75.79518127441406,43.81058120727539,75.63410186767578,-6.7774200439453125,6.880148410797119,1.6632486581802368,-0.024434180930256844,-0.018920376896858215,0.09454841911792755
75.77884674072266,43.76686096191406,75.63414001464844,-6.796875476837158,6.8933515548706055,1.7042477130889893,-0.031452253460884094,-0.019520150497555733,0.08680205047130585
75.7519302368164,43.70696258544922,75.62128448486328,-6.944929122924805,6.828464508056641,1.724259376525879,-0.0386696420609951,-0.0319693349301815,0.08485931158065796
75.71269989013672,43.63088607788086,75.602294921875,-7.178617477416992,6.887547016143799,1.741646647453308,-0.04454069212079048,-0.04282034933567047,0.10419881343841553
75.66757202148438,43.567535400390625,75.58871459960938,-6.975113391876221,6.925277233123779,1.6851164102554321,-0.04884079471230507,-0.046529620885849,0.10629091411828995
75.6326675415039,43.496822357177734,75.58344268798828,-6.853928565979004,6.9481282234191895,1.7423059940338135,-0.03908538073301315,-0.0502951554954052,0.10013449192047119
75.60773468017578,43.405235290527344,75.58206939697266,-6.815591335296631,6.980601787567139,1.7159700393676758,-0.0458102747797966,-0.04914440959692001,0.12250526249408722
75.58182525634766,43.312904357910156,75.57837677001953,-6.9073967933654785,6.937943458557129,1.720969557762146,-0.035706162452697754,-0.049731139093637466,0.13182558119297028
75.5639877319336,43.208160400390625,75.55977630615234,-6.872092247009277,6.922735214233398,1.7041518688201904,-0.0357210747897625,-0.05611182004213333,0.14734995365142822
75.52113342285156,43.12076187133789,75.52249145507812,-6.71769905090332,6.997372150421143,1.7125014066696167,-0.0514540895819664,-0.0613674633204937,0.16147440671920776
75.4522933959961,43.09587478637695,75.48030853271484,-6.5375075340271,6.958098888397217,1.7625445127487183,-0.05874895304441452,-0.058450184762477875,0.1287335753440857
75.39354705810547,43.10107421875,75.46463012695312,-6.455995082855225,6.84951639175415,1.7996569871902466,-0.04367231950163841,-0.059502191841602325,0.06385689228773117
75.3716812133789,43.07503128051758,75.49517822265625,-6.417384624481201,6.776987075805664,1.780040979385376,-0.033299628645181656,-0.03654398024082184,0.043554048985242844
75.3907241821289,43.02001953125,75.54077911376953,-6.40482759475708,6.765570640563965,1.7220778465270996,-0.012300537899136543,-0.01632087491452694,0.0602424219250679
75.4327392578125,42.947532653808594,75.58980560302734,-6.411102294921875,6.780659198760986,1.7014769315719604,-0.0006720424862578511,-0.0024799262173473835,0.08697082102298737
75.4726791381836,42.87550735473633,75.62995147705078,-6.475235462188721,6.818228244781494,1.7090834379196167,0.0011207539355382323,0.008418599143624306,0.11131040006875992
75.49813842773438,42.82820129394531,75.65087890625,-6.423370361328125,6.906744003295898,1.6545785665512085,-0.0037033117841929197,0.011219272390007973,0.11401496082544327
75.50613403320312,42.80583572387695,75.6601333618164,-6.454217433929443,7.003050804138184,1.6620453596115112,-0.0047072782181203365,0.006402098573744297,0.09095017611980438
75.50631713867188,42.79171371459961,75.66177368164062,-6.48893928527832,6.999403953552246,1.7134219408035278,-0.008249285630881786,0.003144890768453479,0.0683928057551384
75.50061798095703,42.78499984741211,75.65628051757812,-6.494049549102783,7.016444206237793,1.6686186790466309,-0.006879121530801058,-0.0047218045219779015,0.05020425468683243
75.48944854736328,42.778114318847656,75.65786743164062,-6.630820274353027,6.98950719833374,1.6931484937667847,-0.012895838357508183,-0.008990243077278137,0.030840376392006874
75.47346496582031,42.762062072753906,75.66870880126953,-6.66966438293457,6.961518287658691,1.6998244524002075,-0.02230331301689148,-0.007820875383913517,0.030004046857357025
75.46150970458984,42.73706817626953,75.69376373291016,-6.660690784454346,7.0061564445495605,1.6588184833526611,-0.0228490699082613,-0.005719438660889864,0.0292530320584774
75.46212005615234,42.6992073059082,75.71979522705078,-6.619051933288574,6.986955642700195,1.705904483795166,-0.026628751307725906,0.005372800398617983,0.0472651869058609
75.46316528320312,42.6795768737793,75.72537994384766,-6.575444221496582,6.9725446701049805,1.7416961193084717,-0.023758411407470703,0.00564400153234601,0.054810017347335815
75.45698547363281,42.68002700805664,75.72608947753906,-6.6361188888549805,6.999026298522949,1.7876452207565308,-0.018833952024579048,-0.00022649765014648438,0.03475044295191765
75.44982147216797,42.67322540283203,75.73284912109375,-6.666252136230469,7.008347034454346,1.7683327198028564,-0.01682192273437977,-0.0032600017730146646,0.021842679008841515
75.44540405273438,42.654239654541016,75.7390365600586,-6.640438556671143,7.007078647613525,1.7533721923828125,-0.016263499855995178,-0.003911927808076143,0.025412626564502716
75.44499206542969,42.61954116821289,75.73861694335938,-6.722146034240723,7.017948627471924,1.7464256286621094,-0.007144734729081392,-0.013861432671546936,0.031476281583309174
75.44347381591797,42.582130432128906,75.73037719726562,-6.703433990478516,7.014699459075928,1.765376091003418,-0.009866803884506226,-0.013929606415331364,0.055347196757793427
75.42338562011719,42.588958740234375,75.71015167236328,-6.526358604431152,7.003487586975098,1.74945867061615,-0.021174179390072823,-0.01418814156204462,0.04001203179359436
75.39358520507812,42.618404388427734,75.6965560913086,-6.516406059265137,6.950427055358887,1.821405053138733,-0.015351923182606697,-0.01901760883629322,0.0019088387489318848
75.38117218017578,42.63425064086914,75.71375274658203,-6.5342888832092285,6.9500579833984375,1.785007119178772,-0.009931252337992191,-0.01213066279888153,-0.017395243048667908
75.38809204101562,42.6195182800293,75.74961853027344,-6.50248908996582,6.947548866271973,1.7389601469039917,-0.012172014452517033,0.0009184703230857849,-0.01107044517993927
75.40715789794922,42.57809829711914,75.77178192138672,-6.561176300048828,6.952428817749023,1.748405933380127,-0.005380809772759676,0.006269851233810186,0.02486352063715458
75.42400360107422,42.54788589477539,75.77655029296875,-6.563130855560303,7.006854057312012,1.757724404335022,-0.0020351263228803873,0.0019257890526205301,0.04636179655790329
75.41989135742188,42.54127883911133,75.77661895751953,-6.561361312866211,7.050928592681885,1.7677061557769775,-0.014645233750343323,0.0002877787046600133,0.03746543452143669
75.39906311035156,42.54545211791992,75.76866149902344,-6.590122222900391,7.049190998077393,1.7763915061950684,-0.022298095747828484,-0.0035393978469073772,0.022301265969872475
75.37757873535156,42.55317687988281,75.76258850097656,-6.632312297821045,7.067617893218994,1.7903791666030884,-0.01891777105629444,-0.009766967035830021,0.008852594532072544
75.36133575439453,42.56045150756836,75.76948547363281,-6.62692928314209,7.030644416809082,1.7721459865570068,-0.023041294887661934,-0.005147233605384827,-0.0014726072549819946
75.3540267944336,42.55751419067383,75.77642822265625,-6.616185665130615,7.01441764831543,1.7501611709594727,-0.01521520409733057,-0.004453212022781372,-0.0031970443669706583
75.3623275756836,42.53619384765625,75.78004455566406,-6.5718488693237305,7.044452667236328,1.7283912897109985,1.695007085800171e-05,-0.008527561090886593,0.009623728692531586
75.37032318115234,42.512149810791016,75.78451538085938,-6.533352375030518,7.016252040863037,1.7158408164978027,-0.003962591290473938,-0.009165704250335693,0.02615954726934433
75.3656005859375,42.49989700317383,75.78913879394531,-6.531333923339844,6.933674335479736,1.7443569898605347,-0.007979199290275574,-0.006343425717204809,0.025906788185238838
75.36012268066406,42.487083435058594,75.78923797607422,-6.624502182006836,6.9670915603637695,1.7315731048583984,-0.009424611926078796,-0.00982470903545618,0.02305973693728447
75.35041809082031,42.48066711425781,75.78621673583984,-6.584244728088379,6.987269878387451,1.7315149307250977,-0.014065578579902649,-0.0063180928118526936,0.02666432596743107
75.33773803710938,42.49201583862305,75.78062438964844,-6.54850435256958,6.970075607299805,1.7225795984268188,-0.012347104027867317,-0.009387359023094177,0.00795070081949234
75.32792663574219,42.501434326171875,75.77880859375,-6.513577461242676,6.968466758728027,1.7470773458480835,-0.010714308358728886,-0.006833672523498535,-0.0007346274214796722
75.32084655761719,42.517154693603516,75.7811508178711,-6.494425296783447,6.981955528259277,1.737618088722229,-0.010228529572486877,-0.004999712575227022,-0.008341298438608646
75.31632232666016,42.528987884521484,75.79618072509766,-6.555934429168701,6.976942539215088,1.7331883907318115,-0.00959634780883789,-0.000802055059466511,-0.018858538940548897
75.31468200683594,42.52474594116211,75.80917358398438,-6.598463535308838,6.96338415145874,1.7443180084228516,-0.019644947722554207,0.0054763625375926495,-0.008029863238334656
75.30329895019531,42.5196647644043,75.8128433227539,-6.717967987060547,6.984648704528809,1.748940110206604,-0.023577362298965454,0.0005437061772681773,0.001887045567855239
75.2901840209961,42.510921478271484,75.81979370117188,-6.749087333679199,7.043093681335449,1.7669942378997803,-0.02178587205708027,-0.001469254493713379,0.0035883858799934387
75.28697967529297,42.496009826660156,75.81940460205078,-6.630125522613525,7.034452438354492,1.7916646003723145,-0.014071912504732609,-0.003039836883544922,0.014989636838436127
75.28598022460938,42.49324417114258,75.80848693847656,-6.599959850311279,7.032102584838867,1.8173377513885498,-0.007489325013011694,-0.0071957712061703205,0.01671072281897068
75.27555084228516,42.506011962890625,75.80108642578125,-6.675976753234863,6.986783504486084,1.8337750434875488,-0.010424107313156128,-0.01082345936447382,0.003551505971699953
75.26083374023438,42.519351959228516,75.80501556396484,-6.686592102050781,6.965672969818115,1.8036022186279297,-0.0125370929017663,-0.0066883862018585205,-0.011269375681877136
75.25843048095703,42.522003173828125,75.81092834472656,-6.642492294311523,6.9713592529296875,1.7978975772857666,-0.005232170224189758,-0.005093590822070837,-0.00935494713485241
75.26110076904297,42.52234649658203,75.81875610351562,-6.580680847167969,6.950636386871338,1.805873155593872,-0.00819526705890894,-0.0010859222384169698,-0.0043392181396484375
75.2587661743164,42.52191925048828,75.82093048095703,-6.6270575523376465,6.929993629455566,1.7811142206192017,-0.008903072215616703,-0.0014238059520721436,-0.002915412187576294
75.25640106201172,42.51240921020508,75.8221206665039,-6.708459377288818,7.0076003074646,1.77579927444458,-0.004559010732918978,-0.008146092295646667,0.002638064092025161
75.25553894042969,42.49668502807617,75.8301773071289,-6.5856428146362305,7.0682854652404785,1.7485562562942505,-0.0058311959728598595,-0.005745887290686369,0.012019090354442596
75.25223541259766,42.488868713378906,75.831787109375,-6.466266632080078,7.036732196807861,1.7678688764572144,-0.012525171972811222,-0.0028137119952589273,0.018336065113544464
75.2450942993164,42.488162994384766,75.82893371582031,-6.520666122436523,7.018469333648682,1.7716007232666016,-0.0061687082052230835,-0.008256361819803715,0.010231323540210724
75.2459716796875,42.47454833984375,75.8304672241211,-6.647798538208008,7.054296016693115,1.7618365287780762,7.320196164073423e-05,-0.011207163333892822,0.010561197996139526
75.24573516845703,42.46585464477539,75.82965087890625,-6.542658805847168,7.008270740509033,1.7604063749313354,-0.006962195038795471,-0.006049126852303743,0.022451765835285187
75.2356948852539,42.48469161987305,75.82350158691406,-6.4621806144714355,6.939885139465332,1.806709885597229,-0.007998197339475155,-0.004821643698960543,0.004010088741779327
75.23377990722656,42.49359893798828,75.8248291015625,-6.57416296005249,6.95644998550415,1.8169257640838623,0.006481075193732977,-0.011973084881901741,-0.012866780161857605
75.24354553222656,42.47954177856445,75.83553314208984,-6.647445201873779,6.9784955978393555,1.7647007703781128,0.0025006013456732035,-0.004454329609870911,0.0005269423709250987
75.24928283691406,42.47711181640625,75.83366394042969,-6.543250560760498,6.963621139526367,1.776472806930542,0.002885051304474473,-0.002333149779587984,0.011510215699672699
75.25017547607422,42.494895935058594,75.83104705810547,-6.490177154541016,6.9716691970825195,1.7995575666427612,0.004917569924145937,-0.0036276879254728556,-0.002651289338245988
75.25041961669922,42.50749969482422,75.83580780029297,-6.615050315856934,6.964773178100586,1.809989094734192,0.0030135742854326963,-0.0034179543145000935,-0.015762075781822205
75.25099182128906,42.50566864013672,75.83972930908203,-6.716217041015625,7.0180816650390625,1.7734172344207764,-0.0011812897864729166,-0.002073124749585986,-0.008282438851892948
75.2507553100586,42.51182174682617,75.84034729003906,-6.660887718200684,6.990260124206543,1.7935099601745605,0.0006319956737570465,-0.0006999821634963155,-0.0021025545429438353
75.2558822631836,42.52944564819336,75.84600830078125,-6.540362358093262,6.977413654327393,1.840235710144043,0.007886254228651524,0.00022035093570593745,-0.014521929435431957
75.26773071289062,42.53834533691406,75.8581771850586,-6.571412086486816,6.987096309661865,1.8211312294006348,0.008263999596238136,0.0030720613431185484,-0.016393885016441345
75.27766418457031,42.5307731628418,75.8710708618164,-6.644028663635254,6.996840953826904,1.7754838466644287,0.004093535710126162,0.00197533518075943,-0.010536985471844673
75.2824935913086,42.499752044677734,75.87960815429688,-6.776426792144775,7.016088008880615,1.7603837251663208,-0.0011008232831954956,-0.0035829849075526,0.011640600860118866
75.27888488769531,42.47250747680664,75.88706970214844,-6.773917198181152,7.024079322814941,1.7638664245605469,-0.009737537242472172,-0.0028699638787657022,0.035203807055950165
75.27555084228516,42.47297286987305,75.89832305908203,-6.585174560546875,6.998366355895996,1.7950119972229004,-0.004579126834869385,0.0018784775165840983,0.025999359786510468
75.2921371459961,42.47949981689453,75.91220092773438,-6.438900470733643,7.004758834838867,1.8226951360702515,0.012026913464069366,0.00517647759988904,0.011708028614521027
75.32128143310547,42.47865676879883,75.9300308227539,-6.449256896972656,7.033047199249268,1.7951613664627075,0.019376911222934723,0.006706826854497194,0.007694401312619448
75.34413146972656,42.46792984008789,75.94585418701172,-6.570878505706787,6.986734390258789,1.766919732093811,0.01304131280630827,0.008912946097552776,0.010704435408115387
75.3577880859375,42.451698303222656,75.95354461669922,-6.647229194641113,6.97873067855835,1.7549749612808228,0.013001077808439732,0.0033607706427574158,0.021632950752973557
75.36734008789062,42.44105911254883,75.96456909179688,-6.607393741607666,6.978176593780518,1.7522547245025635,0.009142793715000153,0.0034851960372179747,0.02240333892405033
75.37712860107422,42.43666458129883,75.97242736816406,-6.55596399307251,6.978204727172852,1.755813717842102,0.009502655826508999,0.004691816866397858,0.020495617762207985
75.39129638671875,42.43737030029297,75.97599792480469,-6.544028282165527,6.999589443206787,1.7703109979629517,0.016588900238275528,0.0019134953618049622,0.013653748668730259
75.4068603515625,42.4371223449707,75.98193359375,-6.592762470245361,7.025161266326904,1.7667670249938965,0.017382390797138214,0.00015217812324408442,0.008976646699011326
75.41693878173828,42.438453674316406,75.98989868164062,-6.595119953155518,7.007977485656738,1.755994200706482,0.011304952204227448,0.002795644337311387,0.006978772580623627
75.4244384765625,42.44308853149414,76.00044250488281,-6.536962032318115,7.028295040130615,1.7485859394073486,0.011287444271147251,0.00239592045545578,0.002451427513733506
75.43785858154297,42.43815994262695,76.01657104492188,-6.536421298980713,7.002432823181152,1.7296559810638428,0.01256987452507019,0.00436343252658844,4.488975173444487e-05
75.45514678955078,42.419525146484375,76.0218505859375,-6.606157302856445,6.992164134979248,1.7332862615585327,0.011407025158405304,0.0030087309423834085,0.014881419949233532
75.4593505859375,42.417545318603516,76.01191711425781,-6.5817413330078125,7.007950782775879,1.7342250347137451,0.003748945891857147,0.00011045486462535337,0.022610463201999664
75.45079040527344,42.43904495239258,76.00516510009766,-6.534910202026367,7.040349960327148,1.747235655784607,0.005917809437960386,-0.007059797644615173,-0.0019274653168395162
75.4528579711914,42.441123962402344,76.01646423339844,-6.583127498626709,7.051237106323242,1.7242965698242188,0.010892748832702637,-0.0073052942752838135,-0.014283881522715092
75.46607971191406,42.42416000366211,76.02888488769531,-6.5941362380981445,7.034948348999023,1.7227306365966797,0.006303005386143923,-0.00014491379261016846,0.00740513252094388
75.47277069091797,42.4262809753418,76.03099060058594,-6.577029705047607,6.993851184844971,1.744524598121643,0.003188289701938629,0.0022618102375417948,0.011331402696669102
75.47393035888672,42.443443298339844,76.02963256835938,-6.541059970855713,6.984350204467773,1.7761815786361694,0.004151277244091034,0.0007225201115943491,-0.00272765732370317
75.47772979736328,42.45241928100586,76.03287506103516,-6.549075126647949,7.004734992980957,1.76053786277771,0.008853338658809662,-0.0032320618629455566,-0.013543292880058289
75.48697662353516,42.438453674316406,76.04000854492188,-6.650590896606445,7.059180736541748,1.7367373704910278,0.009158439934253693,-0.005065651144832373,-0.004103779327124357
75.49165344238281,42.422264099121094,76.04105377197266,-6.665648460388184,7.017848014831543,1.756589651107788,0.0009501352906227112,-0.0033281745854765177,0.015957467257976532
75.48697662353516,42.423622131347656,76.03748321533203,-6.635026454925537,6.986647605895996,1.7869826555252075,0.00030193477869033813,-0.006855652201920748,0.010351651348173618
75.48583221435547,42.42548370361328,76.0450668334961,-6.662755966186523,6.9939656257629395,1.799148678779602,0.004328228533267975,-0.007070228457450867,0.004367344081401825
75.49456024169922,42.42084884643555,76.05963134765625,-6.584228515625,6.99224328994751,1.7645975351333618,0.0037884346675127745,0.0006945803761482239,0.002450682455673814
75.50703430175781,42.41722869873047,76.05894470214844,-6.513589859008789,7.01439094543457,1.7698397636413574,0.00664461450651288,0.0018617140594869852,0.013004803098738194
75.51319885253906,42.433258056640625,76.05266571044922,-6.496575355529785,7.018515586853027,1.7577435970306396,0.010259635746479034,-0.0020507725421339273,0.0010168179869651794
75.51505279541016,42.45335388183594,76.0491943359375,-6.5348968505859375,6.969299793243408,1.7691880464553833,0.008527004159986973,-0.00209845625795424,-0.014606118202209473
75.5185775756836,42.46363067626953,76.04756927490234,-6.570082187652588,7.015522003173828,1.7166123390197754,0.013499148190021515,-0.006758422125130892,-0.01961253583431244
75.52362823486328,42.46259689331055,76.04818725585938,-6.560835361480713,7.008781909942627,1.7015496492385864,0.007259659934788942,-0.004790350794792175,-0.012727826833724976
75.52151489257812,42.464481353759766,76.040771484375,-6.583340644836426,7.006157875061035,1.709446907043457,0.0033931806683540344,-0.0073865060694515705,-0.004940852522850037
75.51461029052734,42.47383117675781,76.03643798828125,-6.61147403717041,7.043752193450928,1.7119516134262085,0.0020721927285194397,-0.009571388363838196,-0.010030344128608704
75.50931549072266,42.483890533447266,76.03581237792969,-6.523166656494141,7.053750991821289,1.6874923706054688,-0.0012833622749894857,-0.005842373240739107,-0.01239813957363367
75.50515747070312,42.50105285644531,76.0335693359375,-6.500993728637695,6.997938632965088,1.744465708732605,-0.001613795873709023,-0.004050508141517639,-0.015305355191230774
75.50489044189453,42.521636962890625,76.03564453125,-6.559521675109863,6.967668056488037,1.7518725395202637,0.004079379141330719,-0.0026356426533311605,-0.025583431124687195
75.51075744628906,42.535213470458984,76.04080200195312,-6.605849266052246,6.973313331604004,1.7455188035964966,0.0036960470024496317,7.171184552134946e-05,-0.024559348821640015
75.51669311523438,42.547122955322266,76.04399108886719,-6.60467529296875,7.005188465118408,1.7427072525024414,0.006200932431966066,0.0018836930394172668,-0.02257711812853813
75.52652740478516,42.56237030029297,76.0389404296875,-6.509748935699463,7.0036797523498535,1.7556343078613281,0.012458302080631256,0.0017603860469534993,-0.019752608612179756
75.53445434570312,42.58903121948242,76.03335571289062,-6.530450344085693,7.013140678405762,1.779300570487976,0.01513492502272129,-0.0015281144296750426,-0.026891009882092476
75.53783416748047,42.61894607543945,76.04078674316406,-6.576632499694824,6.988097667694092,1.7476999759674072,0.011408515274524689,0.002310611307621002,-0.038832053542137146
75.54754638671875,42.6333122253418,76.0516586303711,-6.620479583740234,6.968524932861328,1.7513689994812012,0.013478472828865051,0.004582107532769442,-0.03971084579825401
75.56108856201172,42.63136672973633,76.05232238769531,-6.688880920410156,6.958396911621094,1.747597575187683,0.010269694961607456,0.00336524099111557,-0.020334310829639435
75.56487274169922,42.634803771972656,76.04288482666016,-6.764925956726074,6.959074974060059,1.7498785257339478,0.01059267669916153,-0.0034339732956141233,-0.011923909187316895
75.56053161621094,42.64397048950195,76.03189086914062,-6.747224807739258,6.982545375823975,1.7497884035110474,0.004729256499558687,-0.007860363461077213,-0.01326725073158741
75.55801391601562,42.65080261230469,76.02259826660156,-6.689126968383789,7.027501106262207,1.7604198455810547,0.015909597277641296,-0.013205409981310368,-0.016402825713157654
75.56810760498047,42.64811325073242,76.0186538696289,-6.6401824951171875,7.065554141998291,1.747015118598938,0.018952228128910065,-0.014317036606371403,-0.011176615953445435
75.57456970214844,42.649391174316406,76.015869140625,-6.6216349601745605,7.011171340942383,1.7556674480438232,0.014367138966917992,-0.010146944783627987,-0.00291615747846663
75.57504272460938,42.66395568847656,76.01687622070312,-6.575766086578369,6.971897125244141,1.7583959102630615,0.010195561684668064,-0.008260459639132023,-0.010906530544161797
75.58141326904297,42.66435241699219,76.03067779541016,-6.644590377807617,6.98468542098999,1.7291581630706787,0.015613995492458344,-0.007395074237138033,-0.016753744333982468
75.59596252441406,42.64715576171875,76.04663848876953,-6.619363784790039,6.985574722290039,1.7172999382019043,0.005164556670933962,0.0018497928977012634,0.006292946636676788
75.60040283203125,42.64189529418945,76.04898071289062,-6.590662956237793,7.005038738250732,1.70894193649292,0.0008633359102532268,0.001303665223531425,0.011187978088855743
75.598388671875,42.64160919189453,76.04515838623047,-6.610544204711914,7.039970397949219,1.7284952402114868,-0.0004716217808891088,-0.0036254527512937784,0.009789129719138145
75.58830261230469,42.65080261230469,76.04290771484375,-6.58935022354126,7.044865131378174,1.7299748659133911,-0.010256842710077763,-0.002767890691757202,0.003393925726413727
75.5732650756836,42.66372299194336,76.04415130615234,-6.610268592834473,7.016393661499023,1.7372336387634277,-0.01226030383259058,-0.005023926496505737,-0.009607524611055851
75.56855010986328,42.660491943359375,76.05608367919922,-6.681214332580566,7.006988048553467,1.73872971534729,-0.006175787188112736,-0.004580245818942785,-0.008809193968772888
75.5759506225586,42.6453742980957,76.07166290283203,-6.606215476989746,6.988286972045898,1.7283926010131836,-0.005744025576859713,0.000866316317114979,0.00577438622713089
75.58784484863281,42.6278190612793,76.08283996582031,-6.5757365226745605,6.970328330993652,1.751080870628357,0.003434904618188739,-0.0006660819053649902,0.015485472977161407
75.60389709472656,42.60548782348633,76.0933609008789,-6.635965347290039,6.937795639038086,1.7625536918640137,0.007173977792263031,-0.0012040139408782125,0.025662971660494804
75.61825561523438,42.58707809448242,76.0992431640625,-6.725703716278076,6.923916816711426,1.7736568450927734,0.01035984605550766,-0.0012140722246840596,0.03191549703478813
75.6316146850586,42.58119201660156,76.10054779052734,-6.653830528259277,6.944428443908691,1.7722361087799072,0.01463126577436924,-0.0021338462829589844,0.029024295508861542
75.6442642211914,42.58515930175781,76.1016845703125,-6.618656158447266,6.969715118408203,1.7940319776535034,0.017748214304447174,-0.0026449563447386026,0.015498514287173748
75.65452575683594,42.586978912353516,76.1025161743164,-6.621812343597412,6.99945068359375,1.7721354961395264,0.0149285439401865,-0.0041771684773266315,0.00804159790277481
75.65687561035156,42.58791732788086,76.09896087646484,-6.66062068939209,7.0268049240112305,1.7341535091400146,0.007375702727586031,-0.0039167702198028564,0.00551883177831769
75.65016174316406,42.59535217285156,76.0889892578125,-6.658943176269531,7.006767272949219,1.7245713472366333,0.0014999884879216552,-0.008291753940284252,0.001991540426388383
75.64326477050781,42.60751724243164,76.0893325805664,-6.607949733734131,7.028440952301025,1.71933913230896,0.007064827252179384,-0.009612366557121277,-0.009330734610557556
75.64839935302734,42.611698150634766,76.10107421875,-6.520673751831055,7.006119251251221,1.6923850774765015,0.0044500455260276794,-0.0033546241465955973,-0.011624396778643131
75.65782165527344,42.60017013549805,76.11053466796875,-6.563863277435303,7.026909351348877,1.664307713508606,0.0066371639259159565,-0.003499537706375122,-0.0038884577807039022
75.66458892822266,42.580013275146484,76.11054229736328,-6.594397068023682,7.019710540771484,1.657578945159912,-0.00010356307757319883,-0.0037051739636808634,0.016308018937706947
75.65737915039062,42.577606201171875,76.10143280029297,-6.572328567504883,6.979605674743652,1.6898337602615356,-0.004342943895608187,-0.007794797420501709,0.017658807337284088
