Roll,Pitch,Yaw,AccX,AccY,AccZ,GyroX,GyroY,GyroZ
14.870734214782715,-1.794039011001587,49.494808197021484,0.43633952736854553,2.449836254119873,9.403255462646484,-0.003213435411453247,0.0002315268066013232,-0.0040661548264324665
14.869280815124512,-1.7920397520065308,49.497520446777344,0.4334145188331604,2.4220802783966064,9.400815963745117,-0.0029589980840682983,0.00020358712936285883,-0.0031735748052597046
14.870416641235352,-1.7883847951889038,49.50217056274414,0.4237865209579468,2.3976943492889404,9.393109321594238,4.86150493088644e-05,0.0020379202906042337,-0.002313405741006136
14.87212085723877,-1.7851473093032837,49.50883865356445,0.41704949736595154,2.4030637741088867,9.399330139160156,0.0019239262910559773,0.0038294121623039246,0.00017117710376624018
14.874371528625488,-1.7839895486831665,49.51610565185547,0.39451801776885986,2.404589891433716,9.405506134033203,0.004158355295658112,0.004079379606992006,0.0021113085094839334
14.874241828918457,-1.7866421937942505,49.52341079711914,0.38604798913002014,2.4084854125976562,9.413773536682129,0.004797987639904022,0.0023664908949285746,0.0045740967616438866
14.87174129486084,-1.7917989492416382,49.52944564819336,0.3764784038066864,2.4457733631134033,9.428980827331543,0.0022331252694129944,-0.002088770270347595,0.005740114022046328
14.87100887298584,-1.7950128316879272,49.535701751708984,0.3595719635486603,2.4477546215057373,9.430989265441895,0.0012429432244971395,-0.004142895340919495,0.0059930612333118916
14.87359619140625,-1.7959624528884888,49.54185485839844,0.3421511650085449,2.441149950027466,9.427850723266602,0.0027628617826849222,-0.003168731927871704,0.006426312029361725
14.877106666564941,-1.7961145639419556,49.546905517578125,0.3288702070713043,2.4453787803649902,9.407461166381836,0.0060403719544410706,-0.002425909275189042,0.005113518796861172
14.877700805664062,-1.7956751585006714,49.55311584472656,0.318445086479187,2.466897964477539,9.404969215393066,0.005845167674124241,-0.0013373792171478271,0.00461991922929883
14.878504753112793,-1.7968673706054688,49.559513092041016,0.31024467945098877,2.4691097736358643,9.425433158874512,0.004282780457288027,-0.00017210841178894043,0.0054812063463032246
14.883018493652344,-1.8016090393066406,49.56481170654297,0.3171062469482422,2.4723823070526123,9.44383430480957,0.0060396273620426655,-0.002912058960646391,0.0051734959706664085
14.888835906982422,-1.8060780763626099,49.57085037231445,0.3378523290157318,2.465665340423584,9.44054889678955,0.009121562354266644,-0.005479156970977783,0.006150269415229559
14.8944091796875,-1.8082808256149292,49.577125549316406,0.35174110531806946,2.462711811065674,9.426685333251953,0.010115094482898712,-0.004856660962104797,0.005943514872342348
14.902213096618652,-1.811143159866333,49.58396530151367,0.3566509783267975,2.4553167819976807,9.429234504699707,0.011806003749370575,-0.004106760490685701,0.006588734686374664
14.911460876464844,-1.8158243894577026,49.59096908569336,0.35778534412384033,2.4696130752563477,9.423409461975098,0.015021675266325474,-0.0051021575927734375,0.006943383254110813
14.919144630432129,-1.8192198276519775,49.60019302368164,0.377665251493454,2.518488883972168,9.424437522888184,0.01603979803621769,-0.00634901225566864,0.008363091386854649
14.924330711364746,-1.818119764328003,49.61223220825195,0.3926037847995758,2.5589802265167236,9.408551216125488,0.015614369884133339,-0.002938136924058199,0.010393747128546238
14.92757797241211,-1.8161473274230957,49.6258659362793,0.4151422083377838,2.566606283187866,9.393373489379883,0.01286435965448618,0.0012421980500221252,0.012515672482550144
14.931009292602539,-1.815845251083374,49.640296936035156,0.42012977600097656,2.5566530227661133,9.358095169067383,0.011880137026309967,0.002649240428581834,0.014614501036703587
14.932865142822266,-1.8174091577529907,49.6553955078125,0.42990249395370483,2.544325590133667,9.336212158203125,0.01046936959028244,0.0029521065298467875,0.016612373292446136
14.932844161987305,-1.823779821395874,49.67064666748047,0.43780648708343506,2.5365397930145264,9.344614028930664,0.008195453323423862,0.0012023375602439046,0.018703006207942963
14.93216323852539,-1.8354402780532837,49.68544006347656,0.4379485845565796,2.5185959339141846,9.36723518371582,0.00576432840898633,-0.004805624485015869,0.02083759941160679
14.931939125061035,-1.8464727401733398,49.700870513916016,0.42009949684143066,2.4946646690368652,9.383554458618164,0.00476595014333725,-0.009674579836428165,0.022386571392416954
14.932863235473633,-1.8526090383529663,49.71725845336914,0.4085051715373993,2.472294569015503,9.388877868652344,0.00415164977312088,-0.009510667063295841,0.023626353591680527
14.93574047088623,-1.8533556461334229,49.73390579223633,0.4067513048648834,2.457876205444336,9.411191940307617,0.005835480988025665,-0.005838647484779358,0.023369675502181053
14.937345504760742,-1.850604772567749,49.750450134277344,0.3984995186328888,2.4491963386535645,9.444221496582031,0.006954932119697332,-0.00015683475066907704,0.02279077284038067
14.936861038208008,-1.8486188650131226,49.765193939208984,0.3897863030433655,2.4528987407684326,9.468172073364258,0.005290471017360687,0.0036759304348379374,0.02130698598921299
14.937809944152832,-1.8473179340362549,49.77707290649414,0.3726777136325836,2.4532296657562256,9.48666000366211,0.0043248762376606464,0.003406219184398651,0.01947675086557865
14.94144344329834,-1.8421504497528076,49.78596878051758,0.35505735874176025,2.430927276611328,9.466151237487793,0.005987472832202911,0.0050956374034285545,0.015368872322142124
14.94576358795166,-1.8346658945083618,49.7910270690918,0.35727208852767944,2.4022586345672607,9.441389083862305,0.007866881787776947,0.008297900669276714,0.010856801643967628
14.950772285461426,-1.826790690422058,49.79042053222656,0.35219308733940125,2.40960955619812,9.42930793762207,0.008634291589260101,0.008966215886175632,0.003719888860359788
14.95858097076416,-1.8160525560379028,49.78573989868164,0.34278181195259094,2.4120752811431885,9.421226501464844,0.01063775084912777,0.009628570638597012,-0.003351643681526184
14.967693328857422,-1.8011999130249023,49.776798248291016,0.35246631503105164,2.4097976684570312,9.406445503234863,0.01407284289598465,0.012618489563465118,-0.011586024425923824
14.974784851074219,-1.7849576473236084,49.764835357666016,0.3588128387928009,2.4206554889678955,9.402993202209473,0.014697201550006866,0.015311875380575657,-0.019370391964912415
14.979957580566406,-1.7687537670135498,49.7503547668457,0.3472854495048523,2.46258807182312,9.439436912536621,0.013813190162181854,0.01657102443277836,-0.025599824264645576
14.984719276428223,-1.750832438468933,49.7340087890625,0.3446786105632782,2.502959966659546,9.485846519470215,0.011858903802931309,0.016820989549160004,-0.031401220709085464
14.992871284484863,-1.7296067476272583,49.717769622802734,0.3681155741214752,2.5262837409973145,9.480887413024902,0.01212377194315195,0.019863435998558998,-0.035753101110458374
15.005355834960938,-1.706347942352295,49.70237350463867,0.3752777576446533,2.5309698581695557,9.446473121643066,0.015834534540772438,0.022678636014461517,-0.03849603608250618
15.017793655395508,-1.6814078092575073,49.68757629394531,0.3800458610057831,2.5482285022735596,9.40088939666748,0.019993821159005165,0.026698969304561615,-0.03972611576318741
15.026570320129395,-1.6584371328353882,49.67399978637695,0.37716999650001526,2.5648818016052246,9.362530708312988,0.01952964998781681,0.02860110253095627,-0.04094131663441658
15.032752990722656,-1.6400306224822998,49.66331100463867,0.347596138715744,2.572819709777832,9.339692115783691,0.017818251624703407,0.027910439297556877,-0.0381663516163826
15.036622047424316,-1.6256742477416992,49.653682708740234,0.3135511577129364,2.563382863998413,9.309521675109863,0.014704282395541668,0.024125538766384125,-0.03512800112366676
15.038952827453613,-1.6142573356628418,49.646183013916016,0.2809073030948639,2.5631136894226074,9.302759170532227,0.012110360898077488,0.02086106687784195,-0.03186352550983429
15.03869342803955,-1.6080917119979858,49.64060592651367,0.27927643060684204,2.56341552734375,9.319555282592773,0.009018369019031525,0.01635160483419895,-0.02709776535630226
15.035247802734375,-1.6064491271972656,49.6357536315918,0.2809993624687195,2.5697875022888184,9.367928504943848,0.005084462463855743,0.00961553119122982,-0.022966044023633003
15.029452323913574,-1.6057695150375366,49.631980895996094,0.2722015082836151,2.5738964080810547,9.40688419342041,0.00040885069756768644,0.004561804234981537,-0.019029157236218452
15.023283004760742,-1.6040112972259521,49.628448486328125,0.26562151312828064,2.5752577781677246,9.430755615234375,-0.0028952956199645996,0.0017488376470282674,-0.016532467678189278
15.017569541931152,-1.599813461303711,49.62529373168945,0.23169992864131927,2.576303720474243,9.436772346496582,-0.00491701066493988,0.0014299527974799275,-0.015167148783802986
15.011801719665527,-1.5930386781692505,49.62286376953125,0.2207404524087906,2.552313804626465,9.4317626953125,-0.005379318725317717,0.0032404439989477396,-0.014390423893928528
15.00514030456543,-1.5847368240356445,49.62091064453125,0.20702937245368958,2.5130720138549805,9.401628494262695,-0.0069908807054162025,0.005808660294860601,-0.013663621619343758
14.998496055603027,-1.5777215957641602,49.61849594116211,0.2198629081249237,2.4686801433563232,9.37224292755127,-0.007389113772660494,0.007848255336284637,-0.013451648876070976
14.990922927856445,-1.5765905380249023,49.61474609375,0.23422203958034515,2.4493768215179443,9.376141548156738,-0.008573011495172977,0.006009451113641262,-0.013025105930864811
14.983478546142578,-1.5800704956054688,49.609622955322266,0.2406749576330185,2.4665334224700928,9.404790878295898,-0.009478257037699223,-0.0006120652542449534,-0.012828782200813293
14.977788925170898,-1.582269310951233,49.60480499267578,0.2846101224422455,2.4828412532806396,9.422612190246582,-0.00957585871219635,-0.004182383883744478,-0.012592228129506111
14.974594116210938,-1.581865906715393,49.599769592285156,0.33890122175216675,2.4830305576324463,9.42347526550293,-0.007328764069825411,-0.004968047142028809,-0.012806430459022522
14.97288990020752,-1.5786638259887695,49.595096588134766,0.38669878244400024,2.4700872898101807,9.432403564453125,-0.005317851901054382,-0.0034660103265196085,-0.0138893723487854
14.9727144241333,-1.5747313499450684,49.591285705566406,0.41817706823349,2.4437336921691895,9.445611000061035,-0.002467259531840682,-0.0008735806331969798,-0.013750791549682617
14.974166870117188,-1.5723997354507446,49.58711242675781,0.4319702386856079,2.4356532096862793,9.461857795715332,-0.00058598822215572,-0.000346451997756958,-0.013928488828241825
14.980046272277832,-1.5714436769485474,49.58403778076172,0.439897745847702,2.419243097305298,9.463871002197266,0.003184937173500657,-0.0011939553078263998,-0.013639405369758606
14.990058898925781,-1.5693515539169312,49.583805084228516,0.41961464285850525,2.4073562622070312,9.431564331054688,0.009113363921642303,-0.0016290695639327168,-0.0116690993309021
14.999225616455078,-1.5654346942901611,49.58631896972656,0.4030774235725403,2.405700922012329,9.398388862609863,0.014291145838797092,0.0011159108253195882,-0.009227171540260315
15.003798484802246,-1.5660349130630493,49.59071350097656,0.38602569699287415,2.4204821586608887,9.39038372039795,0.01368690375238657,0.002234615385532379,-0.0060182069428265095
15.006794929504395,-1.575122356414795,49.595542907714844,0.3497313857078552,2.4379916191101074,9.395259857177734,0.011552682146430016,-0.002914666896685958,-0.001652538892813027
15.009840965270996,-1.5884183645248413,49.60114669799805,0.29023173451423645,2.4495370388031006,9.381772994995117,0.01035388559103012,-0.010760501958429813,0.0018084421753883362
15.01331615447998,-1.6008638143539429,49.609275817871094,0.2502811849117279,2.4602267742156982,9.372201919555664,0.00954065565019846,-0.014816970564424992,0.005871988832950592
15.016912460327148,-1.611657738685608,49.619598388671875,0.21690477430820465,2.4686179161071777,9.369937896728516,0.010029413737356663,-0.015997886657714844,0.00919830147176981
15.018684387207031,-1.6222219467163086,49.63202667236328,0.2030186802148819,2.488774538040161,9.379941940307617,0.009053388610482216,-0.015091526322066784,0.013027154840528965
15.018853187561035,-1.6354824304580688,49.643707275390625,0.19559650123119354,2.5228590965270996,9.407634735107422,0.007459334097802639,-0.015816466882824898,0.016069598495960236
15.017744064331055,-1.6513406038284302,49.65321350097656,0.18814565241336823,2.5505571365356445,9.418354034423828,0.005236827302724123,-0.01906045340001583,0.01692492514848709
15.01588249206543,-1.6685577630996704,49.66188430786133,0.19598744809627533,2.587158679962158,9.419832229614258,0.0035228210035711527,-0.021875273436307907,0.01670886017382145
15.013994216918945,-1.6857259273529053,49.670066833496094,0.21408453583717346,2.597399950027466,9.428309440612793,0.0016761946026235819,-0.024959823116660118,0.017120877280831337
15.013420104980469,-1.6966750621795654,49.67762756347656,0.25650808215141296,2.5960898399353027,9.429323196411133,0.0017246230272576213,-0.0248052179813385,0.015728360041975975
15.012322425842285,-1.699516773223877,49.68528366088867,0.3160635530948639,2.603905200958252,9.408082962036133,0.0020956615917384624,-0.01783519610762596,0.013768860138952732
15.008495330810547,-1.7020512819290161,49.69124221801758,0.36397308111190796,2.605307102203369,9.395387649536133,0.00086221843957901,-0.010942668654024601,0.01076776534318924
15.00252914428711,-1.7134652137756348,49.69511795043945,0.3818066418170929,2.610103130340576,9.380033493041992,-0.002399086719378829,-0.011136382818222046,0.008739715442061424
14.996204376220703,-1.7311301231384277,49.698402404785156,0.3969687521457672,2.6210756301879883,9.371211051940918,-0.004198775161057711,-0.019957497715950012,0.008304604329168797
14.98923110961914,-1.7405247688293457,49.70475769042969,0.44891220331192017,2.605182409286499,9.363944053649902,-0.006343425251543522,-0.022161010652780533,0.008420835249125957
14.983277320861816,-1.7389825582504272,49.71430587768555,0.5078809261322021,2.5695059299468994,9.368708610534668,-0.00697597861289978,-0.013466925360262394,0.009186379611492157
14.979536056518555,-1.737440824508667,49.722984313964844,0.560081958770752,2.52036190032959,9.382692337036133,-0.006556883919984102,-0.004513934254646301,0.008771009743213654
14.977614402770996,-1.7427153587341309,49.72933578491211,0.5740061402320862,2.478839874267578,9.390859603881836,-0.0037923455238342285,-0.00520236836746335,0.008242391049861908
14.974257469177246,-1.7487210035324097,49.73524475097656,0.5542912483215332,2.447988510131836,9.401925086975098,-0.0030979516450315714,-0.008144230581820011,0.007345713675022125
14.970885276794434,-1.7512553930282593,49.743263244628906,0.5222340226173401,2.4425551891326904,9.41736125946045,-0.003544986480847001,-0.0073473891243338585,0.0071326266042888165
14.969103813171387,-1.7504342794418335,49.75385665893555,0.49920791387557983,2.451617956161499,9.424847602844238,-0.0023290517274290323,-0.004311278462409973,0.008270703256130219
14.967547416687012,-1.7449287176132202,49.7657585144043,0.4816504120826721,2.4484574794769287,9.423206329345703,-0.0010911376448348165,0.00023599714040756226,0.009558537043631077
14.965977668762207,-1.736124038696289,49.77677536010742,0.4623287320137024,2.4327495098114014,9.402496337890625,-0.0006426126346923411,0.007187016773968935,0.009375251829624176
14.964673042297363,-1.7294418811798096,49.78596878051758,0.44173291325569153,2.4242730140686035,9.409923553466797,7.58096794015728e-05,0.009934790432453156,0.007702970411628485
14.96355152130127,-1.725266695022583,49.79520797729492,0.40475186705589294,2.418546676635742,9.41111946105957,0.00016670675540808588,0.00972505658864975,0.007057003676891327
14.964256286621094,-1.7227880954742432,49.803958892822266,0.367144912481308,2.419771432876587,9.396479606628418,0.0011211262317374349,0.008458830416202545,0.00715572340413928
14.966795921325684,-1.720708966255188,49.81223678588867,0.31331396102905273,2.4175145626068115,9.38255500793457,0.003427080810070038,0.0064352527260780334,0.006326474715024233
14.96853256225586,-1.7160944938659668,49.821903228759766,0.28609946370124817,2.415285348892212,9.390751838684082,0.005256572272628546,0.006311201490461826,0.00665392866358161
14.96765422821045,-1.708980679512024,49.83091354370117,0.28150495886802673,2.421320676803589,9.396014213562012,0.004399754572659731,0.009307824075222015,0.006750785745680332
14.965409278869629,-1.7045543193817139,49.83657455444336,0.2638836205005646,2.4423625469207764,9.425909996032715,0.00250060111284256,0.010137072764337063,0.004790909588336945
14.963153839111328,-1.7045280933380127,49.83967208862305,0.2587580680847168,2.47944974899292,9.448989868164062,0.0009918585419654846,0.006261281669139862,0.002562068635597825
14.962407112121582,-1.703946590423584,49.84148406982422,0.24762661755084991,2.4964277744293213,9.458518028259277,0.0004580245295073837,0.002413801848888397,0.0005146489129401743
14.96448040008545,-1.6982990503311157,49.84272384643555,0.24977880716323853,2.5021870136260986,9.44484806060791,0.0020494686905294657,0.002756900619715452,-0.0019963830709457397
14.969280242919922,-1.6888418197631836,49.84379577636719,0.2641366422176361,2.5032646656036377,9.427515983581543,0.004810281563550234,0.0068655237555503845,-0.004674494732171297
14.974274635314941,-1.6804299354553223,49.8453483581543,0.26629185676574707,2.5131263732910156,9.410856246948242,0.008408167399466038,0.009459071792662144,-0.006473809480667114
14.97530460357666,-1.6758153438568115,49.84763717651367,0.29318296909332275,2.545147657394409,9.38781452178955,0.0079350546002388,0.009433739818632603,-0.005967915989458561
14.973137855529785,-1.675303339958191,49.84934997558594,0.3269442319869995,2.566310405731201,9.362997055053711,0.005124135874211788,0.005977227818220854,-0.005335732828825712
14.96894359588623,-1.678121566772461,49.851806640625,0.33973556756973267,2.561279296875,9.355839729309082,0.0018322838004678488,0.002233125502243638,-0.004601850174367428
14.96377182006836,-1.679708480834961,49.85676574707031,0.3652445077896118,2.558605670928955,9.357280731201172,-0.00117197644431144,-0.0027485189493745565,-0.0019304451998323202
14.958845138549805,-1.6737953424453735,49.862789154052734,0.42770829796791077,2.5231850147247314,9.382850646972656,-0.0030491508077830076,0.0016750770155340433,-0.00025592753081582487
14.955201148986816,-1.6716285943984985,49.8670768737793,0.41735348105430603,2.4993858337402344,9.403016090393066,-0.0036928809713572264,0.0053765252232551575,-0.0009294600458815694
14.953876495361328,-1.678490161895752,49.870479583740234,0.40570059418678284,2.49220609664917,9.434419631958008,-0.002789125544950366,-0.0010076910257339478,7.580966484965757e-05
14.956235885620117,-1.685201644897461,49.87406921386719,0.37501758337020874,2.4704177379608154,9.433581352233887,-0.00031962987850420177,-0.006536767352372408,0.000978820025920868
14.960578918457031,-1.6871321201324463,49.878963470458984,0.3330531716346741,2.457465171813965,9.424163818359375,0.004548020660877228,-0.007087737787514925,0.0012090429663658142
14.961806297302246,-1.6835206747055054,49.886234283447266,0.3100932538509369,2.462766408920288,9.425006866455078,0.005666353739798069,-0.00340789626352489,0.0019675123039633036
14.962078094482422,-1.6789292097091675,49.894039154052734,0.26742982864379883,2.4692163467407227,9.42509937286377,0.004114397335797548,0.002771802246570587,0.0029226767364889383
14.96380615234375,-1.6796313524246216,49.89994812011719,0.2627127468585968,2.4435203075408936,9.407102584838867,0.005140714813023806,0.0021835791412740946,0.003256089985370636
14.96369457244873,-1.6839638948440552,49.905330657958984,0.2547672390937805,2.4397294521331787,9.386480331420898,0.005018897354602814,-0.0008232892141677439,0.0031476840376853943
14.961893081665039,-1.6919370889663696,49.91079330444336,0.24315813183784485,2.435699939727783,9.409194946289062,0.002941303187981248,-0.004752353765070438,0.004438869655132294
14.96145248413086,-1.7033188343048096,49.9145393371582,0.25084540247917175,2.432762384414673,9.436052322387695,0.0019492583815008402,-0.009922684170305729,0.004848279058933258
14.96311092376709,-1.7134987115859985,49.91756820678711,0.2700740396976471,2.426790714263916,9.44570541381836,0.0031502919737249613,-0.015182794071733952,0.00449400395154953
14.965981483459473,-1.7167274951934814,49.921024322509766,0.28565549850463867,2.4239909648895264,9.43102741241455,0.004605390597134829,-0.013365969061851501,0.0035787008237093687
14.970890045166016,-1.716345191001892,49.92362976074219,0.2964686155319214,2.422623634338379,9.42788314819336,0.006493366789072752,-0.008539855480194092,0.001747719943523407
14.976451873779297,-1.7164369821548462,49.92561340332031,0.3141691982746124,2.426560878753662,9.418219566345215,0.009567104279994965,-0.005826354492455721,-0.0002998858690261841
14.97940444946289,-1.7175995111465454,49.92722702026367,0.3303097188472748,2.4717023372650146,9.430665016174316,0.009498558938503265,-0.004787743091583252,-0.0009588897810317576
14.980836868286133,-1.7197952270507812,49.926998138427734,0.3286382555961609,2.504450559616089,9.433759689331055,0.008073262870311737,-0.005087629426270723,-0.002421066164970398
14.982829093933105,-1.7218600511550903,49.9262580871582,0.3343862295150757,2.5330121517181396,9.41496467590332,0.0066826120018959045,-0.006313249934464693,-0.004243106115609407
14.98512077331543,-1.7226767539978027,49.92692184448242,0.3530474603176117,2.5356216430664062,9.402850151062012,0.0075967987067997456,-0.005391612648963928,-0.004824251402169466
14.984950065612793,-1.7237358093261719,49.92864227294922,0.3648616373538971,2.545466899871826,9.404247283935547,0.0058865174651145935,-0.004817172884941101,-0.004305318463593721
14.984662055969238,-1.7255229949951172,49.93027877807617,0.3758811056613922,2.545304298400879,9.398269653320312,0.0042451550252735615,-0.004426018334925175,-0.0036071992944926023
14.984392166137695,-1.7281428575515747,49.93231201171875,0.3785862624645233,2.565974473953247,9.393514633178711,0.003984010778367519,-0.005494431126862764,-0.003568455809727311
14.982709884643555,-1.729609727859497,49.936439514160156,0.3806571960449219,2.578418731689453,9.38717269897461,0.0026425349060446024,-0.005269795656204224,-0.001921877614222467
14.98155403137207,-1.730419635772705,49.94096755981445,0.3759598731994629,2.590529680252075,9.359423637390137,0.001364387571811676,-0.0036880378611385822,-0.0005323440418578684
14.982340812683105,-1.730449914932251,49.94554138183594,0.38789743185043335,2.5591142177581787,9.36294174194336,0.0022398310247808695,-0.0037655234336853027,5.6438151659676805e-05
14.981940269470215,-1.728925108909607,49.950157165527344,0.38908272981643677,2.5551204681396484,9.35948371887207,0.0034635888878256083,-0.0007815659046173096,0.0004606321454048157
14.978495597839355,-1.7311031818389893,49.9530143737793,0.3927602469921112,2.545203924179077,9.381548881530762,0.0010417774319648743,-0.001212954637594521,3.40863989549689e-05
14.974752426147461,-1.7368214130401611,49.95457077026367,0.37020525336265564,2.5580410957336426,9.414804458618164,-0.0007111579179763794,-0.00483095645904541,-0.0005058944807387888
14.97104549407959,-1.7398732900619507,49.95652770996094,0.34575775265693665,2.5644187927246094,9.435431480407715,-0.001993030309677124,-0.008214266039431095,-0.0010479241609573364
14.968151092529297,-1.734704852104187,49.959957122802734,0.34295836091041565,2.542712926864624,9.442346572875977,-0.0023677947465330362,-0.0037629157304763794,-0.0015806406736373901
14.967390060424805,-1.7271422147750854,49.963470458984375,0.32684776186943054,2.5038321018218994,9.427684783935547,-0.0017862768145278096,0.0029111281037330627,-0.0028558073099702597
14.968785285949707,-1.7227979898452759,49.96664047241211,0.3272969126701355,2.470107316970825,9.403810501098633,0.0009899958968162537,0.004776008427143097,-0.002976507181301713
14.968064308166504,-1.7214603424072266,49.96965408325195,0.3136076033115387,2.4537243843078613,9.395054817199707,0.0025300313718616962,0.00398512976244092,-0.0032953922636806965
14.964452743530273,-1.722522497177124,49.97286605834961,0.3124474585056305,2.4463613033294678,9.40884017944336,7.80448317527771e-05,0.0015160072362050414,-0.0019710513297468424
14.962268829345703,-1.7244210243225098,49.97451400756836,0.30351942777633667,2.448707342147827,9.411713600158691,-0.0009629875421524048,-0.000757351575884968,-0.002154335379600525
14.961776733398438,-1.7268401384353638,49.975093841552734,0.30542927980422974,2.442002773284912,9.403724670410156,3.855675458908081e-05,-0.0030558560974895954,-0.002851709956303239
14.961075782775879,-1.7273417711257935,49.9760627746582,0.2968701124191284,2.4318230152130127,9.401846885681152,0.0009031966328620911,-0.004390627611428499,-0.0038523226976394653
14.959961891174316,-1.726039171218872,49.97890853881836,0.2999457120895386,2.4272377490997314,9.40681266784668,0.0006990507245063782,-0.001936778542585671,-0.0036895277444273233
14.959989547729492,-1.7276768684387207,49.9819221496582,0.31281569600105286,2.433868169784546,9.417440414428711,0.0011401252122595906,-0.0018395485822111368,-0.002522394759580493
14.960888862609863,-1.7302625179290771,49.98512268066406,0.31587928533554077,2.4441163539886475,9.423771858215332,0.002510286867618561,-0.004346667788922787,-0.0019446014193817973
14.961572647094727,-1.7300925254821777,49.98931121826172,0.3316904902458191,2.4484782218933105,9.41968822479248,0.003118254244327545,-0.0032536687795072794,-0.0004854053258895874
14.96083927154541,-1.7305340766906738,49.992286682128906,0.3384927213191986,2.465866804122925,9.413536071777344,0.003560073906555772,-0.0017639249563217163,-0.0010166317224502563
14.95792007446289,-1.7344908714294434,49.99551010131836,0.345515638589859,2.4938299655914307,9.4175386428833,0.0011911619221791625,-0.0037357215769588947,-0.0007446857052855194
14.95649528503418,-1.7397905588150024,49.99932861328125,0.35181725025177,2.495048999786377,9.41049861907959,0.00018980354070663452,-0.006089732050895691,0.0004766509809996933
14.957866668701172,-1.7444740533828735,50.00298309326172,0.3502729833126068,2.487478733062744,9.399683952331543,0.0014787541003897786,-0.0077027827501297,0.00109616678673774
14.960469245910645,-1.747071623802185,50.00687789916992,0.3639790415763855,2.4728779792785645,9.398828506469727,0.004044733941555023,-0.007476658094674349,0.001121498760767281
14.963083267211914,-1.7491329908370972,50.0111198425293,0.36078575253486633,2.4800665378570557,9.401023864746094,0.004936568904668093,-0.005686655640602112,0.0012280420633032918
14.96694564819336,-1.7522895336151123,50.01530838012695,0.35787707567214966,2.4827005863189697,9.40530014038086,0.006644241511821747,-0.006219744682312012,0.0013602898688986897
14.9705228805542,-1.753251552581787,50.020362854003906,0.3687824010848999,2.4993319511413574,9.407930374145508,0.00800993386656046,-0.005765259265899658,0.0017708170926198363
14.971760749816895,-1.7515068054199219,50.02582931518555,0.3762146830558777,2.521803617477417,9.407733917236328,0.007900410331785679,-0.002656877040863037,0.001989491283893585
14.970317840576172,-1.7505630254745483,50.03081512451172,0.37678858637809753,2.530580759048462,9.417898178100586,0.005312078166753054,-0.0005804002285003662,0.0015227125259116292
14.968761444091797,-1.7518178224563599,50.03532791137695,0.37829360365867615,2.531895399093628,9.42090892791748,0.0030795112252235413,-0.001105666160583496,0.001802481827326119
14.968332290649414,-1.753145694732666,50.039207458496094,0.3664882481098175,2.5255064964294434,9.420805931091309,0.00249277800321579,-0.0024452803190797567,0.0011498108506202698
14.969643592834473,-1.7534254789352417,50.04359436035156,0.36350852251052856,2.496006727218628,9.404123306274414,0.002795271575450897,-0.0020265576895326376,0.0011062250705435872
14.971738815307617,-1.7534250020980835,50.04817581176758,0.36095255613327026,2.481201171875,9.3831205368042,0.004955194890499115,-0.0018078834982588887,0.0007988885045051575
14.971349716186523,-1.7531288862228394,50.05284118652344,0.363461434841156,2.4894282817840576,9.390912055969238,0.004475749097764492,-0.0010546296834945679,0.0012194738956168294
14.970147132873535,-1.7524718046188354,50.0567512512207,0.3390715420246124,2.506396532058716,9.404985427856445,0.0027818605303764343,-0.0010516495676711202,0.0005168840289115906
14.96957015991211,-1.7513189315795898,50.060237884521484,0.33018165826797485,2.5146608352661133,9.41148567199707,0.0025445595383644104,-2.6077033908222802e-05,0.00020693989063147455
14.96888542175293,-1.7513688802719116,50.06245803833008,0.3272465765476227,2.531611204147339,9.424463272094727,0.002164580160751939,-0.00041835015872493386,-0.0011183322640135884
14.968338012695312,-1.7520389556884766,50.064876556396484,0.3186047673225403,2.5188441276550293,9.419158935546875,0.002026558620855212,-0.0015933070098981261,-0.001697987550869584
14.967848777770996,-1.750901222229004,50.068397521972656,0.3104870319366455,2.513460159301758,9.41807746887207,0.00206921249628067,-0.0017348678084090352,-0.0017404556274414062
14.968400955200195,-1.748244285583496,50.07244110107422,0.3051214814186096,2.501133918762207,9.406000137329102,0.002024136483669281,0.0007415192085318267,-0.0012878329725936055
14.970086097717285,-1.7469850778579712,50.07609939575195,0.31546154618263245,2.493847608566284,9.39146900177002,0.0039597973227500916,0.000951997993979603,-0.0015143302734941244
14.970120429992676,-1.7469078302383423,50.08060836791992,0.32644087076187134,2.488532304763794,9.388601303100586,0.003937818575650454,0.0006878750282339752,-0.0008329750271514058
14.968192100524902,-1.748397707939148,50.08499526977539,0.33544427156448364,2.4935555458068848,9.39272689819336,0.003065728349611163,-0.0004548580036498606,0.0002494082145858556
14.964180946350098,-1.7509050369262695,50.089073181152344,0.3430677652359009,2.4951717853546143,9.404622077941895,0.0004800036840606481,-0.00226534903049469,0.000352226197719574
14.960559844970703,-1.7535427808761597,50.092960357666016,0.3467910885810852,2.4937052726745605,9.421550750732422,-0.0014517457457259297,-0.0034481287002563477,0.0012876464752480388
14.959709167480469,-1.7564994096755981,50.09542465209961,0.34450316429138184,2.4662270545959473,9.418192863464355,-0.0014364720555022359,-0.004396588075906038,0.00013764947652816772
14.961817741394043,-1.7590806484222412,50.09844970703125,0.3440411388874054,2.4611401557922363,9.406745910644531,0.0013826416106894612,-0.0057931989431381226,2.3283066184376366e-05
14.962664604187012,-1.7597931623458862,50.101985931396484,0.339689165353775,2.469041109085083,9.405141830444336,0.0037549063563346863,-0.004467741120606661,-0.0002700835757423192
14.959996223449707,-1.7611854076385498,50.10597610473633,0.33662137389183044,2.483238935470581,9.412415504455566,0.0020487229339778423,-0.003790110582485795,-3.762543201446533e-05
14.957856178283691,-1.7636122703552246,50.1097526550293,0.3390543758869171,2.5018088817596436,9.424076080322266,1.3597310498880688e-05,-0.004080683458596468,0.0005627050995826721
14.958512306213379,-1.7654286623001099,50.11249923706055,0.33616092801094055,2.4797656536102295,9.425539016723633,0.0012492761015892029,-0.004968047607690096,0.00021178275346755981
14.959502220153809,-1.765045166015625,50.11588668823242,0.3345591127872467,2.477245330810547,9.412832260131836,0.0028086823876947165,-0.0037860125303268433,-0.0007428228855133057
14.959193229675293,-1.7644577026367188,50.120304107666016,0.339758962392807,2.4665541648864746,9.411520957946777,0.003106706077232957,-0.0018619000911712646,-7.376074063358828e-05
14.958751678466797,-1.7660466432571411,50.12322235107422,0.34937363862991333,2.467113733291626,9.412324905395508,0.002150796353816986,-0.0018034132663160563,-7.338822615565732e-05
14.958683013916016,-1.7684643268585205,50.12527847290039,0.3505094051361084,2.484800338745117,9.401568412780762,0.0030914321541786194,-0.004293397534638643,-0.0009592623682692647
14.95742416381836,-1.7687288522720337,50.12811279296875,0.3432917892932892,2.488679885864258,9.39333724975586,0.001811794936656952,-0.0035226347390562296,-0.001129135605879128
14.958085060119629,-1.7691113948822021,50.130001068115234,0.34594443440437317,2.4842758178710938,9.400809288024902,0.0019924715161323547,-0.0028006734792143106,-0.0015191733837127686
14.959568977355957,-1.7695128917694092,50.13125991821289,0.3487558662891388,2.4938886165618896,9.412664413452148,0.00382792204618454,-0.003376603592187166,-0.0028196724597364664
14.959871292114258,-1.769408106803894,50.13385009765625,0.3516343832015991,2.508213758468628,9.417637825012207,0.003593228990212083,-0.002384558320045471,-0.002904236549511552
14.960976600646973,-1.7695534229278564,50.13631057739258,0.35109323263168335,2.508151054382324,9.426511764526367,0.0036450105253607035,-0.0025268644094467163,-0.002207234501838684
14.963202476501465,-1.7679885625839233,50.13840103149414,0.3556646406650543,2.4907243251800537,9.413558006286621,0.0047711655497550964,-0.001847371575422585,-0.0030044466257095337
14.965435028076172,-1.7658668756484985,50.14162826538086,0.34759676456451416,2.4853925704956055,9.40396499633789,0.005639530718326569,4.563480615615845e-05,-0.00293180369772017
14.966485023498535,-1.7660748958587646,50.144935607910156,0.3477189242839813,2.4829459190368652,9.391923904418945,0.005961395334452391,0.00027548521757125854,-0.0021852555219084024
14.966160774230957,-1.7689260244369507,50.148136138916016,0.3469705581665039,2.481926202774048,9.40582275390625,0.004448555875569582,-0.0019550323486328125,-0.0016462057828903198
14.964753150939941,-1.7732062339782715,50.15212631225586,0.3453873097896576,2.5002803802490234,9.409507751464844,0.0038752334658056498,-0.004009529948234558,-0.0004585832648444921
14.962432861328125,-1.7783600091934204,50.156307220458984,0.34334760904312134,2.514873504638672,9.426372528076172,0.0010916964383795857,-0.006222352851182222,0.0008931383490562439
14.962916374206543,-1.781996250152588,50.160369873046875,0.3381178379058838,2.5098636150360107,9.411588668823242,0.0017119571566581726,-0.007461756933480501,0.0014102086424827576
14.963342666625977,-1.7817579507827759,50.164756774902344,0.33129099011421204,2.5023977756500244,9.393145561218262,0.0032054262701421976,-0.005919113755226135,0.0014586374163627625
14.962059020996094,-1.7799805402755737,50.16967010498047,0.32240158319473267,2.504819631576538,9.401217460632324,0.002242066664621234,-0.0020362436771392822,0.0006878750282339752
14.961441040039062,-1.7816121578216553,50.17485046386719,0.31979307532310486,2.493462324142456,9.400129318237305,0.0017454845365136862,-0.0015344470739364624,0.0017138199182227254
14.961372375488281,-1.78568434715271,50.17802810668945,0.31576597690582275,2.493040084838867,9.390084266662598,0.0024614855647087097,-0.003782660001888871,0.0019488856196403503
14.959726333618164,-1.789197325706482,50.18082046508789,0.31569164991378784,2.48837947845459,9.400760650634766,0.002094544470310211,-0.006042421329766512,0.0004714355163741857
14.957643508911133,-1.7901532649993896,50.18484115600586,0.31059035658836365,2.4899818897247314,9.413751602172852,0.0003987923264503479,-0.005252659786492586,0.0013047829270362854
14.957197189331055,-1.789507269859314,50.18687057495117,0.33901455998420715,2.4714338779449463,9.434131622314453,0.0010622665286064148,-0.00341758131980896,2.5890769393299706e-05
14.95682144165039,-1.7912788391113281,50.186771392822266,0.33465704321861267,2.4616096019744873,9.433183670043945,0.0014236196875572205,-0.0026647003833204508,-0.0019457191228866577
14.955561637878418,-1.798362374305725,50.186031341552734,0.32363376021385193,2.494166135787964,9.420109748840332,0.0017451123567298055,-0.006607919931411743,-0.00375211238861084
14.953775405883789,-1.8045891523361206,50.18758773803711,0.3121381998062134,2.524909734725952,9.40287971496582,0.00020097941160202026,-0.011158735491335392,-0.002580508589744568
14.952472686767578,-1.802115559577942,50.192176818847656,0.3145141005516052,2.5375266075134277,9.407801628112793,0.001281686476431787,-0.008060411550104618,-0.0019997362978756428
14.950119972229004,-1.7942508459091187,50.19882583618164,0.33742189407348633,2.539729595184326,9.42317008972168,-0.00032819804619066417,0.00032391399145126343,-0.00020787121320609003
14.951116561889648,-1.7895946502685547,50.20331954956055,0.3618573844432831,2.5091421604156494,9.417798042297363,0.0006297603831626475,0.005046091973781586,-0.00039637088775634766
14.953386306762695,-1.7906367778778076,50.20624923706055,0.38155075907707214,2.4828028678894043,9.386716842651367,0.003797747427597642,0.0023497268557548523,-0.0005755574093200266
14.95396900177002,-1.7941207885742188,50.20883560180664,0.38955169916152954,2.478008270263672,9.365524291992188,0.003715418977662921,-0.0005647540674544871,-0.0007092953892424703
14.953198432922363,-1.80081307888031,50.21146774291992,0.39742234349250793,2.495121955871582,9.361721992492676,0.003998167812824249,-0.00461749779060483,-0.0002685934887267649
14.949440002441406,-1.80878484249115,50.21519470214844,0.39244788885116577,2.523348808288574,9.387450218200684,0.0012775883078575134,-0.008883700706064701,0.0006856396212242544
14.945704460144043,-1.8135733604431152,50.22002410888672,0.38916847109794617,2.5238661766052246,9.404050827026367,-0.0008787960978224874,-0.010336936451494694,0.002489425241947174
14.94411563873291,-1.8121470212936401,50.22494125366211,0.39762192964553833,2.523322820663452,9.416358947753906,-0.0013533979654312134,-0.0073034316301345825,0.0020118432585150003
14.94482421875,-1.8065656423568726,50.230079650878906,0.4076169729232788,2.506096601486206,9.419447898864746,0.0007202849956229329,-0.0012632460566237569,0.0016203152481466532
14.94595718383789,-1.8009464740753174,50.23402404785156,0.4061957001686096,2.4884023666381836,9.433404922485352,0.002188049489632249,0.0028157606720924377,-2.60770320892334e-05
14.946728706359863,-1.7978380918502808,50.23760986328125,0.39459699392318726,2.4708118438720703,9.43787956237793,0.003466196358203888,0.004290976095944643,-0.0008866192074492574
14.945454597473145,-1.7975775003433228,50.24054718017578,0.37066227197647095,2.46163272857666,9.42741584777832,0.003020278876647353,0.0025043266359716654,-0.0011079011019319296
14.943778038024902,-1.798089623451233,50.24292755126953,0.34937700629234314,2.4597690105438232,9.422699928283691,0.001128203934058547,0.0006662682280875742,-0.0016324222087860107
14.945517539978027,-1.7989342212677002,50.24638366699219,0.3298662602901459,2.4478986263275146,9.401893615722656,0.001849047839641571,-0.0008296222076751292,-0.0018782917177304626
14.950179100036621,-1.7962446212768555,50.25211715698242,0.3305734097957611,2.4388842582702637,9.392712593078613,0.005250610876828432,-0.001261010766029358,-0.00021085147454869002
14.954578399658203,-1.7883857488632202,50.258323669433594,0.3384591341018677,2.4266905784606934,9.39382266998291,0.007819944061338902,0.004691072273999453,0.0002341344952583313
14.956978797912598,-1.7834677696228027,50.26356887817383,0.335496723651886,2.432009220123291,9.392372131347656,0.00821333471685648,0.007223895750939846,-3.762543565244414e-05
14.958423614501953,-1.7832928895950317,50.2674560546875,0.3255923390388489,2.4424142837524414,9.42086410522461,0.006846897304058075,0.005238689947873354,0.00027623024652712047
14.960765838623047,-1.7862967252731323,50.269866943359375,0.31712087988853455,2.4526827335357666,9.429545402526855,0.006870367098599672,0.0011680647730827332,-0.0003576278977561742
14.962117195129395,-1.790031909942627,50.2729606628418,0.3157602548599243,2.491633653640747,9.441043853759766,0.006975419353693724,-0.0027522447053343058,-0.000433996319770813
14.962151527404785,-1.7913938760757446,50.27655792236328,0.3088338375091553,2.492063522338867,9.44028091430664,0.0051857903599739075,-0.0038322063628584146,0.00048484659055247903
14.964195251464844,-1.7902274131774902,50.279624938964844,0.30104437470436096,2.4969518184661865,9.429303169250488,0.004846417345106602,-0.002419204218313098,-0.0005751848802901804
14.968077659606934,-1.7874901294708252,50.28340148925781,0.28894171118736267,2.4948737621307373,9.404438018798828,0.006849505472928286,-0.0008989125490188599,-0.0006698071374557912
14.972002029418945,-1.7835206985473633,50.28691482543945,0.2944970428943634,2.4854111671447754,9.386215209960938,0.007762574125081301,0.0019678848329931498,-0.001103430986404419
14.974248886108398,-1.7827147245407104,50.289249420166016,0.2854713797569275,2.5121212005615234,9.372477531433105,0.008919648826122284,0.002607144648209214,-0.0016260892152786255
14.97277545928955,-1.7863484621047974,50.29112243652344,0.2765748202800751,2.535776138305664,9.40109634399414,0.00568609731271863,-0.0010292977094650269,-0.0020407140254974365
14.971527099609375,-1.7909451723098755,50.293521881103516,0.2735636532306671,2.564069986343384,9.425518989562988,0.0035485252737998962,-0.004440919030457735,-0.0008981674909591675
14.971470832824707,-1.79393470287323,50.29513168334961,0.27983179688453674,2.572852849960327,9.424124717712402,0.0028805802576243877,-0.0060357144102454185,-0.0010292978258803487
14.972090721130371,-1.7946140766143799,50.296913146972656,0.29643163084983826,2.5665595531463623,9.407559394836426,0.003446080256253481,-0.00548996077850461,-0.0017810612916946411
14.971714973449707,-1.7942646741867065,50.29996109008789,0.30469563603401184,2.557429790496826,9.395007133483887,0.003392807673662901,-0.0036548820789903402,-0.00190362345892936
14.97128963470459,-1.7945271730422974,50.30327606201172,0.31655552983283997,2.554086685180664,9.40733814239502,0.002360530197620392,-0.002620741492137313,-0.0007361173629760742
14.972712516784668,-1.7950851917266846,50.30569076538086,0.335053950548172,2.5172407627105713,9.398029327392578,0.0032445418182760477,-0.0027377160731703043,-0.001288577914237976
14.972771644592285,-1.7959797382354736,50.309104919433594,0.3481689393520355,2.4791676998138428,9.374408721923828,0.004499219823628664,-0.0024955719709396362,-0.0010080636711791158
14.968839645385742,-1.8000118732452393,50.31258773803711,0.3661918044090271,2.4814646244049072,9.381560325622559,0.0018214806914329529,-0.00296309613622725,3.6321576772024855e-05
14.96423053741455,-1.808876395225525,50.314964294433594,0.36249133944511414,2.498210906982422,9.414508819580078,-0.0012181696947664022,-0.007513165939599276,0.0007828697562217712
14.961873054504395,-1.8175654411315918,50.317222595214844,0.3553147315979004,2.494062900543213,9.432414054870605,-0.002079084748402238,-0.012070314027369022,0.0014105811715126038
14.961488723754883,-1.8200716972351074,50.32087326049805,0.35221123695373535,2.481201171875,9.42579174041748,-0.0003661961236502975,-0.011837856844067574,0.001209788373671472
14.961111068725586,-1.8144267797470093,50.326805114746094,0.36065542697906494,2.4941234588623047,9.430081367492676,0.0006010755896568298,-0.005569681990891695,0.0016307459445670247
14.962533950805664,-1.8066401481628418,50.33306884765625,0.38384076952934265,2.4718918800354004,9.421162605285645,0.0014806167455390096,0.003175624180585146,0.0012042002053931355
14.965746879577637,-1.8057615756988525,50.33738708496094,0.4241833984851837,2.4393043518066406,9.409265518188477,0.004713795147836208,0.004441476427018642,0.001533143105916679
14.966145515441895,-1.8174233436584473,50.338809967041016,0.37867432832717896,2.4748072624206543,9.369171142578125,0.005413778591901064,-0.0006012618541717529,0.0006148592219687998
14.963851928710938,-1.8389902114868164,50.34114074707031,0.35257595777511597,2.464618444442749,9.38530158996582,0.0028500333428382874,-0.01675225980579853,0.002575479680672288
14.963981628417969,-1.8413159847259521,50.347816467285156,0.3594540059566498,2.461968421936035,9.419660568237305,0.001465342938899994,-0.021947922185063362,0.0056939199566841125
14.96561050415039,-1.819024920463562,50.35426712036133,0.4794732630252838,2.4293878078460693,9.406606674194336,0.004765205085277557,0.001511164242401719,0.003215485019609332
14.962763786315918,-1.8112353086471558,50.35316467285156,0.40412238240242004,2.4429454803466797,9.418557167053223,0.00268314010463655,0.014247559010982513,-0.0027745964471250772
14.9605131149292,-1.832611083984375,50.346778869628906,0.34076544642448425,2.4662182331085205,9.421527862548828,-0.00015199185872916132,-0.002894178032875061,-0.0055089592933654785
14.96291446685791,-1.849491834640503,50.344444274902344,0.2852436304092407,2.4918031692504883,9.426305770874023,0.0013304875465109944,-0.024580582976341248,-0.004495680797845125
14.967779159545898,-1.833368182182312,50.350929260253906,0.2846721410751343,2.481934070587158,9.440485954284668,0.005356408655643463,-0.010618194937705994,-0.003390759462490678
14.972633361816406,-1.8096500635147095,50.35748291015625,0.3473222851753235,2.4780735969543457,9.443038940429688,0.0076206400990486145,0.013361685909330845,-0.00344105064868927
14.977678298950195,-1.8022778034210205,50.35684585571289,0.35136184096336365,2.4610209465026855,9.437481880187988,0.009378603659570217,0.01619066670536995,-0.005549564957618713
14.98097038269043,-1.8097456693649292,50.35187530517578,0.33873847126960754,2.460636615753174,9.400047302246094,0.009804408065974712,0.006533973850309849,-0.008254128508269787
14.981002807617188,-1.8212084770202637,50.3483772277832,0.2958974242210388,2.5076301097869873,9.375799179077148,0.007846021093428135,-0.007949025370180607,-0.00824667513370514
14.980363845825195,-1.8236960172653198,50.34874725341797,0.29344454407691956,2.5111083984375,9.389453887939453,0.004622899927198887,-0.009180980734527111,-0.00660084281116724
14.982783317565918,-1.8211387395858765,50.35014343261719,0.2946924865245819,2.517150640487671,9.399129867553711,0.004944391082972288,-0.005528703331947327,-0.005681067705154419
14.98563289642334,-1.8165771961212158,50.35193634033203,0.3195391595363617,2.529489278793335,9.397378921508789,0.006780961062759161,-0.001456588739529252,-0.005466863978654146
14.98656940460205,-1.8122397661209106,50.354026794433594,0.3248029053211212,2.5452427864074707,9.401829719543457,0.006029941141605377,0.0016925856471061707,-0.005016848910599947
14.987419128417969,-1.8115984201431274,50.355098724365234,0.33060222864151,2.539416790008545,9.411136627197266,0.005310214124619961,0.002381019527092576,-0.00458992924541235
14.987506866455078,-1.8144912719726562,50.35580825805664,0.3392506241798401,2.5351617336273193,9.412649154663086,0.005060620605945587,-0.0018596650334075093,-0.00459887133911252
14.985928535461426,-1.8152867555618286,50.358951568603516,0.33506321907043457,2.5407843589782715,9.386786460876465,0.0032411888241767883,-0.0030353667680174112,-0.0031735748052597046
14.984967231750488,-1.8142459392547607,50.36359405517578,0.3456411063671112,2.5396997928619385,9.392145156860352,0.0020353123545646667,-0.0014781949575990438,-0.0014863907126709819
14.983753204345703,-1.8152012825012207,50.36933898925781,0.34888359904289246,2.539804458618164,9.39354133605957,0.0025698919780552387,-0.00043846675544045866,1.173466444015503e-05
14.980133056640625,-1.8200798034667969,50.375606536865234,0.3624339997768402,2.550485372543335,9.395374298095703,0.0004576519422698766,-0.0027857720851898193,0.002902186941355467
14.977082252502441,-1.8253471851348877,50.38145446777344,0.36704549193382263,2.5484230518341064,9.398192405700684,-0.0010792167158797383,-0.00577978789806366,0.0041829426772892475
14.97603702545166,-1.8280980587005615,50.38859939575195,0.35816138982772827,2.520282745361328,9.388883590698242,-0.0006690621376037598,-0.0059846797958016396,0.005257876124233007
14.97491455078125,-1.8286442756652832,50.39750671386719,0.35897815227508545,2.509223699569702,9.388188362121582,0.000934489187784493,-0.003955886233597994,0.006469526328146458
14.971498489379883,-1.829782485961914,50.40642166137695,0.3513830602169037,2.5100977420806885,9.381230354309082,-0.00028833746910095215,-0.0016666952287778258,0.008325465954840183
14.967572212219238,-1.833657145500183,50.41312789916992,0.3515894114971161,2.514143705368042,9.409960746765137,-0.0014543530996888876,-0.0029206278268247843,0.008014403283596039
14.963944435119629,-1.8382335901260376,50.419376373291016,0.3389791250228882,2.5180130004882812,9.423357009887695,-0.0025365501642227173,-0.004988908767700195,0.007664226461201906
14.96152400970459,-1.8413039445877075,50.425315856933594,0.34787601232528687,2.522076368331909,9.43018627166748,-0.002119690179824829,-0.005572288762778044,0.00726599246263504
14.960380554199219,-1.8411246538162231,50.431053161621094,0.33842915296554565,2.511366844177246,9.433274269104004,-0.0015262514352798462,-0.004641339648514986,0.006061234045773745
14.960947036743164,-1.837209701538086,50.437129974365234,0.33838531374931335,2.48563289642334,9.403440475463867,0.0005045906291343272,-0.0007681548595428467,0.005160086322575808
14.961302757263184,-1.8330544233322144,50.44255065917969,0.3445036709308624,2.462491750717163,9.396958351135254,0.0020785259548574686,0.0027554116677492857,0.003767200279980898
14.958635330200195,-1.8314621448516846,50.447479248046875,0.33892324566841125,2.4547393321990967,9.40721607208252,0.0021288173738867044,0.0032035638578236103,0.0030225145164877176
14.953446388244629,-1.8320881128311157,50.45094680786133,0.3325744867324829,2.467933177947998,9.431068420410156,-0.0016413630219176412,0.0017410144209861755,0.002727098762989044
14.951042175292969,-1.8337410688400269,50.45243453979492,0.3188799023628235,2.4693732261657715,9.432168006896973,-0.0023074448108673096,-0.0007376075373031199,0.000844709575176239
14.951245307922363,-1.834615707397461,50.45344161987305,0.32607540488243103,2.4503116607666016,9.407767295837402,-0.0006418675766326487,-0.00233612977899611,-0.0003650784492492676
14.953038215637207,-1.8338520526885986,50.45372009277344,0.33533814549446106,2.438898801803589,9.387651443481445,0.0015268103452399373,-0.002133473288267851,-0.002247094875201583
14.954939842224121,-1.831824541091919,50.45417404174805,0.34915250539779663,2.441779136657715,9.400449752807617,0.0037768855690956116,-0.0014699996681883931,-0.003445893758907914
14.954989433288574,-1.8293838500976562,50.454105377197266,0.3645989000797272,2.4414024353027344,9.426183700561523,0.0038987030275166035,0.00027772042085416615,-0.004410743713378906
14.95422649383545,-1.8288946151733398,50.451881408691406,0.3610682785511017,2.459712028503418,9.450491905212402,0.0027591362595558167,-0.00036135310074314475,-0.005699694622308016
14.954465866088867,-1.8280260562896729,50.44798278808594,0.3438873291015625,2.468240976333618,9.444353103637695,0.0024901703000068665,-0.0022355469409376383,-0.008139759302139282
14.957547187805176,-1.8233200311660767,50.44565200805664,0.3260325491428375,2.4589738845825195,9.425919532775879,0.003285519778728485,-0.001094117877073586,-0.00996850524097681
14.964573860168457,-1.8155601024627686,50.445682525634766,0.32266372442245483,2.4544167518615723,9.399561882019043,0.007263385225087404,0.00306498259305954,-0.009636207483708858
14.970803260803223,-1.8091801404953003,50.44569396972656,0.3348042368888855,2.4529809951782227,9.381185531616211,0.011101549491286278,0.006251595914363861,-0.00918023381382227
14.971095085144043,-1.8072245121002197,50.44529342651367,0.34147387742996216,2.4663641452789307,9.385710716247559,0.009862149134278297,0.004916453268378973,-0.00864565372467041
14.967148780822754,-1.8088256120681763,50.4442253112793,0.3393457531929016,2.511650800704956,9.406874656677246,0.004549138247966766,0.0017745421500876546,-0.007410720456391573
14.96495532989502,-1.8113921880722046,50.4417724609375,0.33030030131340027,2.5375425815582275,9.422037124633789,0.0011859462829306722,-0.00270940363407135,-0.007665902841836214
14.966299057006836,-1.8098716735839844,50.44097137451172,0.3336249887943268,2.535007953643799,9.42421817779541,0.0022286551538854837,-0.003603101009503007,-0.007990747690200806
14.968472480773926,-1.80362868309021,50.442928314208984,0.36469969153404236,2.531323194503784,9.40994644165039,0.004073419142514467,0.0004371628165245056,-0.006982684601098299
14.970784187316895,-1.7965114116668701,50.4456901550293,0.37778088450431824,2.520927906036377,9.396347045898438,0.004872120916843414,0.004708581138402224,-0.005831569898873568
14.973084449768066,-1.7911484241485596,50.448333740234375,0.3815149664878845,2.51686429977417,9.38026237487793,0.006194598972797394,0.006293691229075193,-0.005060061812400818
14.972676277160645,-1.788547158241272,50.45087814331055,0.38155773282051086,2.536883592605591,9.370253562927246,0.005650334060192108,0.00596512109041214,-0.004102662671357393
14.970075607299805,-1.7883267402648926,50.45392990112305,0.3705274760723114,2.5356645584106445,9.379363059997559,0.0027919188141822815,0.0031894075218588114,-0.0032003968954086304
14.96654987335205,-1.7877041101455688,50.458431243896484,0.36807408928871155,2.5375914573669434,9.391496658325195,0.0012943522306159139,0.0018367543816566467,-0.0012870875652879477
14.962675094604492,-1.786672592163086,50.463462829589844,0.36637964844703674,2.5218467712402344,9.408621788024902,-0.0016078355256468058,0.0017395246541127563,-5.5879361752886325e-05
14.961268424987793,-1.7857824563980103,50.46834182739258,0.3566926419734955,2.4974639415740967,9.413803100585938,-0.0007797033176757395,0.0014157966943457723,0.0013006851077079773
14.96198844909668,-1.7848271131515503,50.47187805175781,0.3527063727378845,2.4735147953033447,9.40751838684082,-0.00021830205514561385,0.0013219194952398539,0.0010078774066641927
14.964437484741211,-1.783552646636963,50.47566223144531,0.3315509259700775,2.4724011421203613,9.40414047241211,0.0036934390664100647,0.0006033108220435679,0.00036899003316648304
14.96339225769043,-1.7812451124191284,50.48086929321289,0.30533933639526367,2.4724583625793457,9.401339530944824,0.003373064799234271,0.001884810859337449,0.0010041521163657308
14.961095809936523,-1.7807899713516235,50.485931396484375,0.28373152017593384,2.464641571044922,9.411099433898926,0.0015871600480750203,0.0022726135794073343,0.0017246231436729431
14.958704948425293,-1.7826792001724243,50.49043273925781,0.2619248926639557,2.479569911956787,9.417571067810059,0.0008756296010687947,-1.4156105862639379e-05,0.0022782012820243835
14.956103324890137,-1.784665584564209,50.4936408996582,0.263845831155777,2.455260992050171,9.422636032104492,-0.00040829190402291715,-0.0015396627131849527,0.002584792673587799
14.95570182800293,-1.7870299816131592,50.49495315551758,0.2572716176509857,2.447190523147583,9.42270565032959,-0.00026859345962293446,-0.0030286614783108234,0.0007638709503225982
14.957136154174805,-1.7897969484329224,50.4962043762207,0.2600649297237396,2.4555068016052246,9.420058250427246,0.0020669775549322367,-0.004521756898611784,4.675238596973941e-05
14.95882511138916,-1.7909550666809082,50.497127532958984,0.25699087977409363,2.458183765411377,9.429354667663574,0.0030601397156715393,-0.00522881792858243,-0.0009227544069290161
14.961517333984375,-1.7903004884719849,50.49896240234375,0.2587100863456726,2.461876630783081,9.414824485778809,0.0048490241169929504,-0.003417954547330737,-0.0018499792786315084
14.963691711425781,-1.7915167808532715,50.50135040283203,0.2582930028438568,2.4661123752593994,9.40991497039795,0.0058619314804673195,-0.0024575742427259684,-0.001069158548489213
14.964824676513672,-1.7955105304718018,50.50299835205078,0.26427650451660156,2.475454330444336,9.412961959838867,0.005755014251917601,-0.0045001511462032795,-0.0009216368198394775
14.965171813964844,-1.800276279449463,50.50487518310547,0.27922964096069336,2.4886767864227295,9.432154655456543,0.005027465522289276,-0.006499514449387789,-0.00021383166313171387
14.964690208435059,-1.8053219318389893,50.50625228881836,0.2998135983943939,2.4951088428497314,9.423649787902832,0.0042887404561042786,-0.007739291060715914,4.284084297978552e-06
14.964688301086426,-1.8106093406677246,50.50726318359375,0.3141772150993347,2.520052671432495,9.408809661865234,0.0028261917177587748,-0.00917389988899231,-0.00014714898134116083
14.967586517333984,-1.8151776790618896,50.50857925415039,0.3394457995891571,2.512479543685913,9.39813232421875,0.004376657772809267,-0.009551645256578922,-0.0002507120370864868
14.970796585083008,-1.8181289434432983,50.51124572753906,0.36342957615852356,2.5085301399230957,9.386171340942383,0.006441958714276552,-0.009265542030334473,-0.00013038517499808222
14.972989082336426,-1.8206368684768677,50.51535415649414,0.3747216463088989,2.501612663269043,9.380855560302734,0.006526522804051638,-0.006604568101465702,0.0011702999472618103
14.975333213806152,-1.8259998559951782,50.5188102722168,0.37992918491363525,2.4949371814727783,9.385303497314453,0.006824919488281012,-0.007568673230707645,0.0022368507925421
14.97580337524414,-1.8315863609313965,50.522247314453125,0.38910576701164246,2.500981569290161,9.396883010864258,0.0068357218988239765,-0.009082258678972721,0.0026052817702293396
14.973957061767578,-1.8368076086044312,50.525936126708984,0.40017786622047424,2.5121655464172363,9.41310977935791,0.003843940794467926,-0.008905679918825626,0.0033373013138771057
14.973116874694824,-1.8422605991363525,50.52875900268555,0.40430185198783875,2.527418613433838,9.43107795715332,0.0028194859623908997,-0.0098716476932168,0.00315923267044127
14.972017288208008,-1.8453972339630127,50.53105926513672,0.40874025225639343,2.5201478004455566,9.437577247619629,0.002556480700150132,-0.009520724415779114,0.0027151780668646097
14.971858978271484,-1.8457286357879639,50.53229522705078,0.3797338008880615,2.5215506553649902,9.429925918579102,0.0013021751074120402,-0.007171184290200472,0.0010175628121942282
14.976475715637207,-1.8440147638320923,50.53422164916992,0.36478251218795776,2.4929158687591553,9.407780647277832,0.0038871541619300842,-0.00492073642089963,-0.0007942320080474019
14.982779502868652,-1.84099280834198,50.5381965637207,0.35078924894332886,2.4691672325134277,9.370771408081055,0.008408166468143463,-0.0010807070648297668,-0.000560656248126179
14.984772682189941,-1.8412752151489258,50.54233169555664,0.35056498646736145,2.464905261993408,9.35953140258789,0.009532459080219269,0.00046361240674741566,0.0003209337592124939
14.982111930847168,-1.846331238746643,50.54539489746094,0.34100449085235596,2.4874842166900635,9.386174201965332,0.005423464346677065,-0.002731010550633073,0.001451186602935195
14.979836463928223,-1.8524192571640015,50.54768753051758,0.33338937163352966,2.5039031505584717,9.408753395080566,0.0024771320167928934,-0.0065229833126068115,0.001543574151583016
14.978765487670898,-1.8560569286346436,50.55006408691406,0.3255249559879303,2.4925503730773926,9.414938926696777,0.0019358472200110555,-0.008011981844902039,0.0017860904335975647
14.977465629577637,-1.8566153049468994,50.551700592041016,0.33081093430519104,2.5154337882995605,9.414884567260742,0.0016523528611287475,-0.006137043237686157,0.000694952963385731
14.976694107055664,-1.856519341468811,50.5528450012207,0.3239990770816803,2.5159780979156494,9.431472778320312,0.000932253897190094,-0.004636496305465698,-0.0005554408417083323
14.979154586791992,-1.8561455011367798,50.55353927612305,0.3201131820678711,2.508537769317627,9.437749862670898,0.0022685155272483826,-0.0033911324571818113,-0.0015720725059509277
14.983444213867188,-1.8555508852005005,50.55476760864258,0.3295806646347046,2.4883241653442383,9.41563892364502,0.005831384565681219,-0.0028539453633129597,-0.0025447458028793335
14.987103462219238,-1.8542059659957886,50.55705261230469,0.33392754197120667,2.4750943183898926,9.398160934448242,0.006845034658908844,-0.001520291087217629,-0.0017397105693817139
14.989825248718262,-1.8527621030807495,50.558616638183594,0.3373708724975586,2.471308708190918,9.393973350524902,0.008350424468517303,-0.0005669891834259033,-0.002050027484074235
14.988224983215332,-1.8522275686264038,50.559940338134766,0.33305999636650085,2.4942550659179688,9.388083457946777,0.0061778356321156025,-0.00035278499126434326,-0.002237037057057023
14.985764503479004,-1.8543400764465332,50.56063461303711,0.3207743763923645,2.509733200073242,9.401444435119629,0.002288632094860077,-0.0012684614630416036,-0.0023745002690702677
14.986053466796875,-1.8593429327011108,50.56141662597656,0.3299560844898224,2.5059244632720947,9.404860496520996,0.0024842098355293274,-0.004851818550378084,-0.0021670013666152954
14.986159324645996,-1.8630858659744263,50.563453674316406,0.33689382672309875,2.5023698806762695,9.408287048339844,0.0031912699341773987,-0.007031112909317017,-0.0010907651158049703
14.985509872436523,-1.8642606735229492,50.566070556640625,0.3285522162914276,2.5015459060668945,9.408744812011719,0.0024402516428381205,-0.005746261216700077,-0.00042617329745553434
14.985595703125,-1.86497163772583,50.568973541259766,0.32754024863243103,2.519489049911499,9.406044960021973,0.002601556247100234,-0.004606321454048157,-0.0001322477764915675
14.986161231994629,-1.8653780221939087,50.572662353515625,0.3316311538219452,2.5208778381347656,9.418572425842285,0.0030005357693880796,-0.0035475939512252808,0.0005709007964469492
14.986408233642578,-1.865807294845581,50.57598114013672,0.3471471965312958,2.5161917209625244,9.413361549377441,0.003653578460216522,-0.002596526872366667,0.0013327227206900716
14.98620319366455,-1.867169737815857,50.578346252441406,0.3591443598270416,2.522496461868286,9.391359329223633,0.0028019773308187723,-0.0026971101760864258,0.0006923452601768076
14.987289428710938,-1.8684604167938232,50.58086395263672,0.3580154776573181,2.51023268699646,9.390790939331055,0.003469176823273301,-0.0036370009183883667,0.0008849427103996277
14.988085746765137,-1.8686103820800781,50.583274841308594,0.3592745065689087,2.483821392059326,9.38240909576416,0.004209019709378481,-0.002609938383102417,0.00028107312391512096
14.988039016723633,-1.8711227178573608,50.58583068847656,0.35580503940582275,2.490281581878662,9.387447357177734,0.0036319720093160868,-0.002700090641155839,0.00039618462324142456
14.98968505859375,-1.874894618988037,50.58842849731445,0.34993794560432434,2.5123980045318604,9.40852165222168,0.0034825883340090513,-0.005504116415977478,0.0009389594779349864
14.994010925292969,-1.8757257461547852,50.59169006347656,0.34224000573158264,2.474618673324585,9.399415969848633,0.006012433208525181,-0.004901737440377474,0.0012157486053183675
14.995467185974121,-1.8762568235397339,50.59529495239258,0.34558331966400146,2.485848903656006,9.396950721740723,0.008055754005908966,-0.003029033774510026,0.0013193115592002869
14.991961479187012,-1.878482460975647,50.59816360473633,0.34519341588020325,2.5121378898620605,9.423565864562988,0.0035380946937948465,-0.0036563726607710123,0.001907162368297577
14.991459846496582,-1.8807530403137207,50.59986114501953,0.3331708312034607,2.5014326572418213,9.456376075744629,0.001407973701134324,-0.004335493315011263,0.0009542332263663411
14.995234489440918,-1.8815971612930298,50.601558685302734,0.3282409608364105,2.4847805500030518,9.440300941467285,0.004188344348222017,-0.004875659942626953,0.0005941838026046753
14.99825382232666,-1.8785322904586792,50.60327911376953,0.32599934935569763,2.491116523742676,9.405978202819824,0.006761960685253143,-0.0026118012610822916,-0.0006232409505173564
14.99670696258545,-1.8740875720977783,50.60554122924805,0.32593581080436707,2.5207016468048096,9.39893627166748,0.005627982318401337,0.001200102036818862,-0.0014491380425170064
14.99205493927002,-1.8720980882644653,50.60710144042969,0.3305395245552063,2.533527135848999,9.412522315979004,0.0014236196875572205,0.002237223321571946,-0.0014930963516235352
14.989381790161133,-1.8731716871261597,50.60654830932617,0.32683834433555603,2.536301612854004,9.40977668762207,-0.0009816139936447144,0.0005351380095817149,-0.002392381662502885
14.990498542785645,-1.8737576007843018,50.6060676574707,0.3409748375415802,2.5171380043029785,9.394354820251465,0.000545196293387562,-0.002834200393408537,-0.003691017860546708
14.992555618286133,-1.8692859411239624,50.607330322265625,0.35204800963401794,2.4936795234680176,9.374780654907227,0.0032449145801365376,-0.0003028661594726145,-0.0033251948188990355
14.992103576660156,-1.8642795085906982,50.60797882080078,0.35528460144996643,2.4962689876556396,9.377091407775879,0.003807433182373643,0.0031130388379096985,-0.004335492383688688
14.989352226257324,-1.863534927368164,50.60823059082031,0.3690606355667114,2.5114588737487793,9.402926445007324,0.0015391039196401834,0.0028589742723852396,-0.004224479664117098
14.987276077270508,-1.8655624389648438,50.6080322265625,0.36935824155807495,2.5182526111602783,9.424663543701172,0.0003242865204811096,-0.0008504838333465159,-0.0041212886571884155
14.985945701599121,-1.8654932975769043,50.60823059082031,0.36182186007499695,2.511232614517212,9.423636436462402,0.00042561444570310414,-0.0022634861525148153,-0.0035971403121948242
14.984939575195312,-1.8629776239395142,50.60839080810547,0.34659671783447266,2.5059540271759033,9.417920112609863,0.0004330650845076889,-0.0008560718270018697,-0.004339218605309725
14.984977722167969,-1.8590874671936035,50.6094970703125,0.3401314318180084,2.5024454593658447,9.41800308227539,0.0010943040251731873,0.00042933973600156605,-0.004200637806206942
14.986407279968262,-1.8541216850280762,50.611366271972656,0.3238775432109833,2.4825613498687744,9.404452323913574,0.0023087486624717712,0.0033063816372305155,-0.004128739237785339
14.9886474609375,-1.8512530326843262,50.61350631713867,0.32312512397766113,2.469172954559326,9.397271156311035,0.004232488572597504,0.0038767228834331036,-0.003254786366596818
14.988788604736328,-1.85151207447052,50.6146125793457,0.33171018958091736,2.478947877883911,9.379524230957031,0.0049563124775886536,0.0027747827116400003,-0.002549960743635893
14.985647201538086,-1.8539612293243408,50.61479187011719,0.3175017535686493,2.4999730587005615,9.395700454711914,0.0024380162358283997,-0.0013012440176680684,-0.002756342524662614
14.982983589172363,-1.8549606800079346,50.61623001098633,0.3094872832298279,2.5050320625305176,9.419078826904297,-0.00010058283805847168,-0.0024091454688459635,-0.0023126602172851562
14.983505249023438,-1.8555103540420532,50.618621826171875,0.31448766589164734,2.4877593517303467,9.42207145690918,0.0008182600140571594,-0.002382323145866394,-0.0015284867258742452
14.985836029052734,-1.8552968502044678,50.62126159667969,0.32038000226020813,2.4805445671081543,9.413928985595703,0.0029815365560352802,-0.0023178758565336466,-0.0004246831522323191
14.988250732421875,-1.8538503646850586,50.62380599975586,0.3175583779811859,2.479755401611328,9.405887603759766,0.004917942453175783,-0.0009413809748366475,-0.0005777925252914429
14.989967346191406,-1.8545231819152832,50.626686096191406,0.3090766668319702,2.4782259464263916,9.39970588684082,0.00528264744207263,-0.00021420419216156006,2.0302833945606835e-05
14.990267753601074,-1.8573077917099,50.629512786865234,0.31241321563720703,2.4664862155914307,9.406538009643555,0.00564698176458478,-0.0029798599425703287,0.0007757917046546936
14.988483428955078,-1.8587403297424316,50.632896423339844,0.31161797046661377,2.490630626678467,9.402270317077637,0.003189779818058014,-0.0030655416194349527,0.0015469267964363098
14.988913536071777,-1.8605142831802368,50.6357421875,0.31074556708335876,2.4992692470550537,9.404749870300293,0.002394803101196885,-0.0032100826501846313,0.0018613412976264954
14.991674423217773,-1.863202452659607,50.637699127197266,0.3116621673107147,2.494807481765747,9.402690887451172,0.004571117460727692,-0.0039473180659115314,0.0016627833247184753
14.992475509643555,-1.8654139041900635,50.63861846923828,0.31275245547294617,2.515763759613037,9.400805473327637,0.0056246304884552956,-0.005305185914039612,0.0010633844649419188
14.991665840148926,-1.866024136543274,50.63954162597656,0.3059908151626587,2.5168285369873047,9.411918640136719,0.003266147803515196,-0.004325061570852995,-0.0003676861524581909
14.993799209594727,-1.866916298866272,50.640159606933594,0.3059663474559784,2.516784191131592,9.421656608581543,0.00387262599542737,-0.003968179691582918,-0.0002592802338767797
14.996317863464355,-1.8654800653457642,50.63972473144531,0.30667436122894287,2.523810863494873,9.411540985107422,0.006019510794430971,-0.003962591290473938,-0.002160668605938554
14.996769905090332,-1.8605901002883911,50.64011764526367,0.3063538670539856,2.537839889526367,9.406251907348633,0.005093030631542206,-0.0001329928927589208,-0.002925843233242631
15.000212669372559,-1.8560501337051392,50.639007568359375,0.3052167594432831,2.5371599197387695,9.387847900390625,0.004612095654010773,0.0022342430893331766,-0.00421479344367981
15.01068115234375,-1.8515619039535522,50.636619567871094,0.31502455472946167,2.5143508911132812,9.361356735229492,0.009287708438932896,0.0024354085326194763,-0.0060226768255233765
15.025280952453613,-1.8434321880340576,50.63389205932617,0.3043949604034424,2.461482286453247,9.316065788269043,0.016336331143975258,0.0039441511034965515,-0.007594004739075899
15.037928581237793,-1.8336443901062012,50.63100051879883,0.2942362427711487,2.4412553310394287,9.294412612915039,0.021146053448319435,0.00861827377229929,-0.010004639625549316
15.043160438537598,-1.8310879468917847,50.62928009033203,0.306831032037735,2.4719436168670654,9.335502624511719,0.019987115636467934,0.008182786405086517,-0.010163710452616215
15.041519165039062,-1.8377699851989746,50.62821578979492,0.3364986777305603,2.5193023681640625,9.426222801208496,0.013075211085379124,0.001638568937778473,-0.007093697786331177
15.038406372070312,-1.8479886054992676,50.62579345703125,0.37320825457572937,2.558506727218628,9.483485221862793,0.006853975355625153,-0.007515401113778353,-0.005038081668317318
15.037055969238281,-1.8520817756652832,50.62234878540039,0.39640629291534424,2.565624475479126,9.503442764282227,0.0035284082405269146,-0.01149699091911316,-0.0047337268479168415
15.038948059082031,-1.8441566228866577,50.617557525634766,0.4180694818496704,2.5530598163604736,9.503087997436523,0.0036461283452808857,-0.006799772847443819,-0.00746846292167902
15.044486045837402,-1.8269234895706177,50.61235809326172,0.40631410479545593,2.528837203979492,9.487523078918457,0.00578705221414566,0.00414159195497632,-0.012231246568262577
15.05217170715332,-1.8087438344955444,50.608577728271484,0.37493908405303955,2.506347179412842,9.426098823547363,0.010102801024913788,0.013409742154181004,-0.015126168727874756
15.055150985717773,-1.7979975938796997,50.60513687133789,0.35195377469062805,2.5162696838378906,9.37938404083252,0.011762045323848724,0.017303042113780975,-0.015085936523973942
15.048267364501953,-1.7985608577728271,50.600494384765625,0.3408995568752289,2.558274507522583,9.391744613647461,0.006231107283383608,0.01030024141073227,-0.014038757421076298
15.035307884216309,-1.8034405708312988,50.595863342285156,0.32770323753356934,2.5966715812683105,9.421419143676758,-0.003882870776578784,0.0016028063837438822,-0.01197718270123005
15.024700164794922,-1.806786298751831,50.591064453125,0.32029539346694946,2.6092686653137207,9.421987533569336,-0.009889155626296997,-0.003977492917329073,-0.011013820767402649
15.01913070678711,-1.8030978441238403,50.587127685546875,0.2916465997695923,2.585437774658203,9.420196533203125,-0.009921938180923462,-0.004581362009048462,-0.010885299183428288
15.016454696655273,-1.790239930152893,50.58436965942383,0.25931257009506226,2.55116868019104,9.38992691040039,-0.007050112821161747,0.002693571848794818,-0.01171305775642395
15.01331615447998,-1.7781751155853271,50.5811653137207,0.22909116744995117,2.5407309532165527,9.365957260131836,-0.0048387800343334675,0.010813213884830475,-0.012893231585621834
15.005535125732422,-1.7771656513214111,50.57638931274414,0.21912947297096252,2.5608067512512207,9.384146690368652,-0.004993006587028503,0.008464419282972813,-0.012780725955963135
14.993782043457031,-1.784014344215393,50.57005310058594,0.2281053215265274,2.5945842266082764,9.435129165649414,-0.010830164887011051,-0.0004045665555167943,-0.011640787124633789
14.986331939697266,-1.790743112564087,50.56155014038086,0.23962031304836273,2.572767496109009,9.448172569274902,-0.01217127125710249,-0.00782012939453125,-0.011660906486213207
14.983489036560059,-1.7924139499664307,50.55079650878906,0.2490570843219757,2.552786350250244,9.410974502563477,-0.009274855256080627,-0.010032580234110355,-0.014138595201075077
14.981391906738281,-1.788150668144226,50.53937911987305,0.23649650812149048,2.5300490856170654,9.400222778320312,-0.005593149922788143,-0.0077016656287014484,-0.017651543021202087
14.977445602416992,-1.781833291053772,50.52865982055664,0.23417820036411285,2.4985811710357666,9.411027908325195,-0.005106627941131592,-0.0025331974029541016,-0.020375104621052742
14.972125053405762,-1.7825486660003662,50.5171012878418,0.26453298330307007,2.5096583366394043,9.409777641296387,-0.005091726779937744,-0.0015567989321425557,-0.02073422074317932
14.96551513671875,-1.7913306951522827,50.502777099609375,0.2730744481086731,2.5016610622406006,9.427263259887695,-0.007061288226395845,-0.00960417091846466,-0.021348148584365845
14.961196899414062,-1.7992429733276367,50.48711395263672,0.2806655168533325,2.4828667640686035,9.42692756652832,-0.0074923038482666016,-0.01542158517986536,-0.022093206644058228
14.960836410522461,-1.8043888807296753,50.47049331665039,0.3072333037853241,2.442152500152588,9.406449317932129,-0.0050988043658435345,-0.016777215525507927,-0.024544447660446167
14.96271800994873,-1.8084142208099365,50.45524597167969,0.33571502566337585,2.414754629135132,9.385464668273926,-0.0010691581992432475,-0.01698993146419525,-0.02564341016113758
14.963232040405273,-1.8112061023712158,50.44266128540039,0.36240366101264954,2.3901798725128174,9.390064239501953,0.00129472475964576,-0.015619024634361267,-0.025142356753349304
14.963184356689453,-1.8144865036010742,50.432525634765625,0.3859263062477112,2.396113872528076,9.396249771118164,0.0007251277565956116,-0.013923275284469128,-0.022837892174720764
14.96633243560791,-1.8219382762908936,50.42305374145508,0.4053635597229004,2.375066041946411,9.410764694213867,0.0028001146856695414,-0.013969465158879757,-0.020290911197662354
14.969470024108887,-1.8335713148117065,50.41408157348633,0.414840966463089,2.393486499786377,9.411439895629883,0.005769172217696905,-0.018981844186782837,-0.017670171335339546
14.971216201782227,-1.8449920415878296,50.40620803833008,0.4101138710975647,2.414994239807129,9.419291496276855,0.004903785884380341,-0.020847098901867867,-0.014999507926404476
14.974875450134277,-1.8585375547409058,50.398502349853516,0.40088802576065063,2.426196336746216,9.407215118408203,0.006350689567625523,-0.023143744096159935,-0.01337193138897419
14.978635787963867,-1.8729264736175537,50.39205551147461,0.4015464782714844,2.4436655044555664,9.400803565979004,0.0073904176242649555,-0.026241319254040718,-0.011113658547401428
14.983331680297852,-1.885974645614624,50.38691711425781,0.3978685438632965,2.4262137413024902,9.406630516052246,0.008043833076953888,-0.02629869244992733,-0.009282678365707397
14.989864349365234,-1.900901436805725,50.382080078125,0.4005189538002014,2.4114315509796143,9.41352367401123,0.01013930980116129,-0.026506930589675903,-0.007345154881477356
14.99674129486084,-1.9161431789398193,50.37640380859375,0.3892635405063629,2.4161412715911865,9.416250228881836,0.011917762458324432,-0.029380621388554573,-0.006064027547836304
15.005319595336914,-1.9265726804733276,50.37043380737305,0.3705863952636719,2.443763017654419,9.419139862060547,0.012798234820365906,-0.027624517679214478,-0.006704032886773348
15.018206596374512,-1.9367046356201172,50.3632926940918,0.36451584100723267,2.46950626373291,9.418888092041016,0.016635097563266754,-0.024256860837340355,-0.007416308857500553
15.03188705444336,-1.9514727592468262,50.35319519042969,0.3520011305809021,2.4819066524505615,9.397451400756836,0.021137114614248276,-0.025912752375006676,-0.009509549476206303
15.043283462524414,-1.9676697254180908,50.34284973144531,0.333101749420166,2.495920181274414,9.404817581176758,0.0216631218791008,-0.030047820881009102,-0.010974707081913948
15.053932189941406,-1.9786027669906616,50.3336067199707,0.3347651958465576,2.5051701068878174,9.430618286132812,0.02164076827466488,-0.030083579942584038,-0.011359153315424919
15.06555461883545,-1.9840521812438965,50.323726654052734,0.34305137395858765,2.5223684310913086,9.437365531921387,0.020955318585038185,-0.024812299758195877,-0.01286082062870264
15.081268310546875,-1.9887317419052124,50.31187057495117,0.3691846430301666,2.5463314056396484,9.447696685791016,0.023282509297132492,-0.02114773355424404,-0.015294554643332958
15.10041618347168,-1.9932188987731934,50.29690170288086,0.3908986747264862,2.5375728607177734,9.424612045288086,0.027272110804915428,-0.019161775708198547,-0.01811683364212513
15.120859146118164,-1.9980801343917847,50.277862548828125,0.4021024703979492,2.5166420936584473,9.387826919555664,0.03142152354121208,-0.0185843575745821,-0.023017827421426773
15.141728401184082,-2.0025787353515625,50.25733947753906,0.39782753586769104,2.4990780353546143,9.376177787780762,0.03326181694865227,-0.01966319978237152,-0.027672579512000084
15.163790702819824,-2.006519317626953,50.2373046875,0.3921336829662323,2.5045857429504395,9.373931884765625,0.0362226739525795,-0.018090015277266502,-0.030574580654501915
15.18421459197998,-2.0161640644073486,50.21735382080078,0.41426587104797363,2.515817165374756,9.369041442871094,0.03721993789076805,-0.01959763467311859,-0.03171340003609657
15.2059326171875,-2.0298545360565186,50.19877624511719,0.41719409823417664,2.552861452102661,9.415514945983887,0.036309096962213516,-0.026106832548975945,-0.0308062843978405
15.236647605895996,-2.041524887084961,50.182247161865234,0.4352303743362427,2.479084014892578,9.42704963684082,0.040551088750362396,-0.027304144576191902,-0.028707832098007202
15.276266098022461,-2.0555686950683594,50.16498947143555,0.48147574067115784,2.370501756668091,9.414497375488281,0.051223307847976685,-0.02830587886273861,-0.02740882895886898
15.316957473754883,-2.069249391555786,50.147361755371094,0.4952439069747925,2.3103866577148438,9.426506996154785,0.06027873978018761,-0.03286898136138916,-0.026793407276272774
15.359291076660156,-2.0721025466918945,50.130210876464844,0.43899497389793396,2.250919818878174,9.462143898010254,0.06373729556798935,-0.028901180252432823,-0.026969611644744873
15.400529861450195,-2.0657577514648438,50.10636901855469,0.3105306625366211,2.2011990547180176,9.45305061340332,0.07226337492465973,-0.01899302564561367,-0.03033467009663582
15.413329124450684,-2.0525588989257812,50.06340026855469,0.16067799925804138,2.2245028018951416,9.526966094970703,0.06488505005836487,-0.012561679817736149,-0.04252978041768074
15.411470413208008,-2.0329463481903076,49.9954719543457,0.012149005196988583,2.242410659790039,9.727764129638672,0.02999957837164402,-0.006372855044901371,-0.06882139295339584
15.42055892944336,-2.0179848670959473,49.90766525268555,0.015905901789665222,2.1084070205688477,9.795868873596191,0.030435066670179367,-0.006804243661463261,-0.0993725135922432
15.454307556152344,-2.0118374824523926,49.80764389038086,0.11870437115430832,1.9923791885375977,10.428552627563477,0.013064781203866005,-0.017217176035046577,-0.12598037719726562
15.656340599060059,-2.0355772972106934,49.696929931640625,-0.2408856451511383,1.7776349782943726,11.019475936889648,0.07321854680776596,-0.027678538113832474,-0.14605560898780823
15.966574668884277,-2.130282402038574,49.566192626953125,-0.7179234623908997,1.7504289150238037,10.529165267944336,0.2887982428073883,-0.08332061767578125,-0.1558084934949875
16.175107955932617,-2.2208662033081055,49.43994140625,-0.7878915667533875,2.0368406772613525,10.204227447509766,0.3207378089427948,-0.16790823638439178,-0.16442322731018066
16.368955612182617,-2.282336473464966,49.325958251953125,-0.7933739423751831,2.0307304859161377,9.395270347595215,0.3267713487148285,-0.12990877032279968,-0.15858127176761627
16.559961318969727,-2.4520320892333984,49.1680793762207,-0.40542030334472656,2.158724546432495,8.646510124206543,0.3280417025089264,-0.1980973184108734,-0.1642220914363861
16.79031753540039,-2.7383205890655518,48.980743408203125,-0.1781906634569168,2.231961965560913,9.264540672302246,0.32400351762771606,-0.2950548827648163,-0.17211416363716125
17.129465103149414,-3.1248960494995117,48.79155349731445,-0.23812097311019897,1.8786909580230713,9.954566955566406,0.3945559859275818,-0.47647130489349365,-0.15903328359127045
17.557952880859375,-3.4779889583587646,48.652286529541016,-0.5378208160400391,1.536931037902832,10.135080337524414,0.5074273347854614,-0.5614283680915833,-0.1285381019115448
18.04481315612793,-3.847576141357422,48.52843475341797,-0.6624503135681152,1.3593552112579346,10.938506126403809,0.6242333650588989,-0.5769364237785339,-0.07314779609441757
18.572166442871094,-4.315345287322998,48.3270378112793,-0.5346508622169495,1.035062313079834,10.515239715576172,0.7224515676498413,-0.6659035086631775,-0.056275203824043274
19.112760543823242,-4.803262233734131,48.052215576171875,0.14517942070960999,1.0594115257263184,10.61547565460205,0.8010593056678772,-0.7967193722724915,-0.08587920665740967
19.641162872314453,-5.211902141571045,47.75358200073242,0.9171540141105652,1.5292768478393555,10.252106666564941,0.8314068913459778,-0.829129695892334,-0.14082275331020355
20.20473289489746,-5.573592662811279,47.45769119262695,1.7735531330108643,1.688982367515564,9.65141487121582,0.8518075942993164,-0.8116199374198914,-0.19027741253376007
20.82242202758789,-5.87269926071167,47.20856857299805,2.091806650161743,1.6917973756790161,9.8919095993042,0.9201716780662537,-0.785314679145813,-0.2109287530183792
21.423892974853516,-6.042998313903809,47.04035949707031,2.2520081996917725,2.0034968852996826,9.806150436401367,0.9715008735656738,-0.6667611598968506,-0.19351844489574432
22.01323890686035,-6.127043724060059,46.91221618652344,2.3120858669281006,2.5007007122039795,9.982023239135742,0.9729033708572388,-0.5017868876457214,-0.17411461472511292
22.661954879760742,-6.194347858428955,46.799232482910156,2.490633964538574,2.8549530506134033,9.912025451660156,1.0085464715957642,-0.38437068462371826,-0.16377389430999756
23.351139068603516,-6.209026336669922,46.729957580566406,2.467564821243286,3.135319709777832,9.926262855529785,1.0803214311599731,-0.30162012577056885,-0.1406286209821701
24.030527114868164,-6.13940954208374,46.72639846801758,2.638890504837036,3.4561660289764404,9.82660961151123,1.122636079788208,-0.1550288200378418,-0.11889181286096573
24.716856002807617,-6.092507362365723,46.75327682495117,2.4570846557617188,3.1036229133605957,9.792461395263672,1.1474764347076416,-0.03971181437373161,-0.07105471193790436
25.43388557434082,-6.176032543182373,46.73112106323242,1.6939918994903564,3.3444418907165527,9.528543472290039,1.1824896335601807,-0.02433299459517002,-0.03573841229081154
26.186092376708984,-6.345958232879639,46.68392562866211,0.8704335689544678,3.99550199508667,9.36639404296875,1.2166485786437988,-0.1663859337568283,-0.007420824840664864
26.981239318847656,-6.391288757324219,46.70180892944336,1.4956958293914795,4.509693145751953,9.386489868164062,1.2739627361297607,-0.1631222665309906,0.024400262162089348
27.81435775756836,-6.31171989440918,46.745975494384766,1.5517244338989258,4.8993353843688965,9.20974063873291,1.3382169008255005,-0.06281779706478119,0.032046493142843246
28.678598403930664,-6.146477699279785,46.77863693237305,1.162854790687561,5.174988746643066,9.152088165283203,1.4025675058364868,0.05606476962566376,-0.0005986590404063463
29.56068992614746,-5.9763875007629395,46.78090286254883,0.3505614697933197,5.264601707458496,8.940878868103027,1.4544533491134644,0.1608186960220337,-0.050560470670461655
30.455455780029297,-5.900544166564941,46.727237701416016,-0.23663175106048584,5.252546310424805,8.76928997039795,1.4923169612884521,0.1560007929801941,-0.08754516392946243
31.375349044799805,-5.921346187591553,46.6174430847168,-0.4476557970046997,5.273854732513428,8.859466552734375,1.5183806419372559,0.07237229496240616,-0.10848186910152435
32.32923889160156,-5.981572151184082,46.46767807006836,-0.26682141423225403,5.287842750549316,8.716024398803711,1.564008116722107,-0.045955657958984375,-0.12382844090461731
33.28533935546875,-5.9583940505981445,46.33651351928711,-0.07725448906421661,5.311672687530518,8.74361515045166,1.596390724182129,-0.10842389613389969,-0.15002018213272095
34.24361801147461,-5.812253475189209,46.25342559814453,0.08453521132469177,5.3635945320129395,8.593119621276855,1.6170542240142822,-0.02628481760621071,-0.1845611184835434
35.213680267333984,-5.637421131134033,46.17462158203125,0.38335853815078735,5.2907538414001465,8.216532707214355,1.6420543193817139,0.051102448254823685,-0.21935096383094788
36.191890716552734,-5.458090782165527,46.09843444824219,0.7373436093330383,5.351375102996826,7.9715447425842285,1.6594587564468384,0.09702539443969727,-0.24359551072120667
37.201629638671875,-5.274448394775391,46.0267219543457,0.9828314185142517,5.374793529510498,7.661321640014648,1.6820330619812012,0.1324463039636612,-0.25879645347595215
38.24761199951172,-5.075455188751221,45.97294235229492,1.2963595390319824,5.435202121734619,7.41975736618042,1.732970952987671,0.14823809266090393,-0.2695803940296173
39.2969970703125,-4.831282615661621,45.976566314697266,1.6073817014694214,5.5909271240234375,7.47818660736084,1.7709425687789917,0.2024117410182953,-0.2701054513454437
40.3489875793457,-4.574419975280762,46.02173614501953,1.7860366106033325,5.848140716552734,7.369641304016113,1.799034833908081,0.28217813372612,-0.25499191880226135
41.401405334472656,-4.332761764526367,46.082862854003906,1.8596782684326172,6.155691146850586,7.036511421203613,1.8195281028747559,0.31416967511177063,-0.23513439297676086
42.448883056640625,-4.094358444213867,46.177677154541016,1.8495553731918335,6.455415725708008,6.80551290512085,1.8293625116348267,0.3550952970981598,-0.21112757921218872
43.49281311035156,-3.885538101196289,46.2913703918457,1.9275065660476685,6.669246196746826,6.6888427734375,1.8351831436157227,0.37686601281166077,-0.17529985308647156
44.53437042236328,-3.6931324005126953,46.428688049316406,1.8571972846984863,6.831105709075928,6.610666275024414,1.834574818611145,0.376720130443573,-0.1369023323059082
45.5841178894043,-3.497581958770752,46.59718322753906,1.7339751720428467,6.945490837097168,6.516485691070557,1.8387470245361328,0.4039870798587799,-0.09877677261829376
46.64578628540039,-3.304502248764038,46.780941009521484,1.4211045503616333,7.053252220153809,6.404995918273926,1.850822925567627,0.41711676120758057,-0.07113922387361526
47.709102630615234,-3.105816125869751,46.99032211303711,1.1504876613616943,7.159383773803711,6.3092360496521,1.8641279935836792,0.4466037154197693,-0.048360224813222885
48.76616287231445,-2.911846876144409,47.20985412597656,1.0097081661224365,7.335503578186035,6.185719966888428,1.8671469688415527,0.469073623418808,-0.028614399954676628
49.82512283325195,-2.7232108116149902,47.42905807495117,0.8032667636871338,7.479624271392822,6.098326206207275,1.8661032915115356,0.48333388566970825,-0.017377259209752083
50.88933563232422,-2.5368542671203613,47.64790725708008,0.5538939833641052,7.640295505523682,5.902290344238281,1.8720852136611938,0.4851187765598297,-0.011972896754741669
51.953948974609375,-2.345240354537964,47.87263488769531,0.3664472699165344,7.740236282348633,5.784921646118164,1.8728258609771729,0.49457815289497375,-0.01335015706717968
53.02595901489258,-2.163050889968872,48.08805847167969,0.12447308003902435,7.85679292678833,5.585382461547852,1.8778555393218994,0.5007128119468689,-0.016149016097187996
54.11261749267578,-2.0022096633911133,48.290611267089844,-0.1477983146905899,7.819362163543701,5.480419158935547,1.8845723867416382,0.4809272885322571,-0.021106524392962456
55.218021392822266,-1.8670963048934937,48.48341369628906,-0.2739488482475281,8.2015380859375,5.306994915008545,1.9064280986785889,0.46640658378601074,-0.012202759273350239
56.326698303222656,-1.7498795986175537,48.65392303466797,-0.23245517909526825,8.38806438446045,5.081202983856201,1.9226908683776855,0.42072710394859314,-0.007422761060297489
57.429168701171875,-1.633368968963623,48.82175827026367,-0.2929420471191406,8.322059631347656,4.933581829071045,1.9319877624511719,0.40251097083091736,-0.008097049780189991
58.53781509399414,-1.5217419862747192,48.97378158569336,-0.37586790323257446,8.284263610839844,4.701292991638184,1.9272998571395874,0.3708878755569458,-0.009686657227575779
59.674495697021484,-1.3947957754135132,49.13129425048828,-0.49999329447746277,8.314334869384766,4.717556953430176,1.9506645202636719,0.3564645051956177,-0.023125866428017616
60.81114959716797,-1.2606114149093628,49.30592727661133,-0.5074294805526733,8.455178260803223,4.691648960113525,1.9710885286331177,0.3615415692329407,-0.034934867173433304
61.942440032958984,-1.1482828855514526,49.46041488647461,-0.3699711859226227,8.645074844360352,4.397727012634277,1.9741075038909912,0.37361815571784973,-0.038427021354436874
63.0837516784668,-1.0788425207138062,49.5524787902832,-0.361610472202301,8.717389106750488,4.0522541999816895,1.980870246887207,0.3165253698825836,-0.03690595179796219
64.23151397705078,-1.0191915035247803,49.63271713256836,-0.3896426260471344,8.708659172058105,3.871150016784668,1.9919841289520264,0.25356221199035645,-0.03488271310925484
65.39103698730469,-0.952441930770874,49.726402282714844,-0.42042532563209534,8.711400985717773,3.5947036743164062,1.9982364177703857,0.23294393718242645,-0.033233873546123505
66.568359375,-0.8783540725708008,49.81277847290039,-0.2681880593299866,8.81403636932373,3.519710063934326,2.023932933807373,0.21688143908977509,-0.03560247644782066
67.73541259765625,-0.7825573682785034,49.89944839477539,-0.20700278878211975,8.948348045349121,3.0753633975982666,2.035120964050293,0.20548145473003387,-0.05225555598735809
68.906982421875,-0.6697989702224731,49.99532699584961,-0.17222627997398376,8.96744155883789,2.6211774349212646,2.0313258171081543,0.21554607152938843,-0.07626698166131973
70.08699798583984,-0.5626527667045593,50.07550048828125,-0.018545769155025482,8.91971492767334,2.6666812896728516,2.054046630859375,0.21842046082019806,-0.0936301201581955
71.24853515625,-0.46546369791030884,50.12965774536133,0.042010046541690826,8.980412483215332,2.9860007762908936,2.0416653156280518,0.19368329644203186,-0.10575763881206512
72.44198608398438,-0.36859366297721863,50.18349838256836,-0.08635637164115906,9.136663436889648,2.6478238105773926,2.0438148975372314,0.16995015740394592,-0.11455246061086655
73.6583251953125,-0.26894819736480713,50.25004196166992,-0.14380338788032532,9.33803653717041,2.223447799682617,2.0847926139831543,0.16540831327438354,-0.12050975114107132
74.84425354003906,-0.16390429437160492,50.3305549621582,-0.011322003789246082,9.558286666870117,1.8905718326568604,2.0857889652252197,0.165950745344162,-0.1238245889544487
76.01947784423828,-0.05208361893892288,50.436973571777344,-0.05734894052147865,9.587383270263672,1.5045580863952637,2.0726332664489746,0.1840231865644455,-0.1319231241941452
77.19945526123047,0.05255831778049469,50.54594421386719,0.053886476904153824,9.295206069946289,1.6785902976989746,2.0678551197052,0.21059128642082214,-0.1302575021982193
78.38958740234375,0.15151254832744598,50.637062072753906,-0.012251895852386951,9.170347213745117,1.5316437482833862,2.0673916339874268,0.20001091063022614,-0.1311914324760437
79.59369659423828,0.2546934485435486,50.71983337402344,-0.36704009771347046,9.371307373046875,1.2370660305023193,2.0804290771484375,0.20187105238437653,-0.13172048330307007
80.78105163574219,0.3560822308063507,50.784812927246094,-0.6180156469345093,9.53128433227539,0.8209526538848877,2.0910768508911133,0.17377330362796783,-0.1456112414598465
81.9510726928711,0.4267148971557617,50.872989654541016,-0.30773329734802246,9.385087013244629,0.8087685108184814,2.063868999481201,0.17033173143863678,-0.1392955780029297
83.12995147705078,0.45933860540390015,50.96744918823242,-0.12000945955514908,9.417559623718262,0.562060534954071,2.0711209774017334,0.17386190593242645,-0.10202078521251678
84.27909851074219,0.481185644865036,51.04655456542969,0.26090049743652344,9.4288330078125,0.7270058393478394,2.052002429962158,0.16568057239055634,-0.06910833716392517
85.40130615234375,0.506282389163971,51.0916862487793,-0.12400040775537491,9.03918170928955,1.0665441751480103,2.026566505432129,0.1478736847639084,-0.05291717126965523
86.483154296875,0.533353328704834,51.10606384277344,-0.17093504965305328,9.23810863494873,1.1715574264526367,1.9862568378448486,0.09924132376909256,-0.05037979036569595
87.47694396972656,0.5447124242782593,51.098106384277344,-0.023830916732549667,9.026707649230957,1.081190586090088,1.9310359954833984,0.07665517926216125,-0.04673561081290245
88.37786865234375,0.5501375794410706,51.06962203979492,0.17204166948795319,9.115782737731934,1.2663233280181885,1.7926675081253052,0.00938841700553894,-0.0219962727278471
89.3104019165039,0.5900244116783142,51.11778259277344,0.633505642414093,8.931654930114746,0.9295780062675476,1.7141302824020386,0.016680002212524414,-0.035419002175331116
90.26483917236328,0.6080246567726135,51.2296142578125,0.9342697262763977,8.722970962524414,0.7751927971839905,1.7082200050354004,0.07776769250631332,-0.05134183168411255
91.19510650634766,0.5640256404876709,51.36778259277344,0.602293848991394,8.9692964553833,0.769321858882904,1.672668218612671,0.13315442204475403,-0.009931742213666439
92.11605072021484,0.513012170791626,51.50568389892578,0.3680824637413025,9.189014434814453,0.4935806095600128,1.6597739458084106,0.1832202970981598,0.03699387237429619
92.98783874511719,0.489061176776886,51.5833625793457,0.566365659236908,9.439196586608887,-0.07865533232688904,1.6211646795272827,0.18907994031906128,0.03956227749586105
93.80094909667969,0.46602728962898254,51.60090637207031,0.5823850035667419,9.453722953796387,-0.24605554342269897,1.562035083770752,0.12837184965610504,0.036172568798065186
94.58491516113281,0.4292216897010803,51.61924362182617,0.5377617478370667,9.553909301757812,0.12644031643867493,1.4810758829116821,0.09024394303560257,0.04269500821828842
95.387451171875,0.38106587529182434,51.68175506591797,0.37571126222610474,9.805785179138184,0.07931783050298691,1.4520864486694336,0.07058239728212357,0.05694212019443512
96.15479278564453,0.32827603816986084,51.811344146728516,0.14678743481636047,10.162468910217285,-0.042153362184762955,1.4320842027664185,0.13104099035263062,0.06226187199354172
96.84342193603516,0.27647003531455994,51.9210205078125,0.2542005777359009,10.228560447692871,-0.6378419399261475,1.3609516620635986,0.16941766440868378,0.06816384196281433
97.50497436523438,0.23232784867286682,51.96246337890625,0.509271502494812,10.122445106506348,-0.8958136439323425,1.2751827239990234,0.15735548734664917,0.06638514250516891
98.18759155273438,0.17519119381904602,51.95970153808594,0.48258957266807556,9.803191184997559,-1.1526981592178345,1.2432633638381958,0.08853526413440704,0.07199189811944962
98.8430404663086,0.09533581882715225,51.96406173706055,0.1285172998905182,9.622808456420898,-1.5173569917678833,1.2265815734863281,0.07214724272489548,0.09511937946081161
99.42778778076172,0.023304607719182968,51.93937683105469,-0.13614177703857422,9.765608787536621,-1.4291378259658813,1.163864016532898,0.03856665641069412,0.11620178073644638
99.94994354248047,-0.030184317380189896,51.927494049072266,-0.2348274439573288,9.84591293334961,-1.3548775911331177,1.0865795612335205,0.005044999532401562,0.11218526214361191
100.41381072998047,-0.07391461730003357,51.93930435180664,-0.11367250978946686,9.69011402130127,-1.5425809621810913,0.991865336894989,0.023623093962669373,0.1018872931599617
100.84542846679688,-0.08819826692342758,51.95395278930664,0.5561301708221436,9.728728294372559,-1.3278452157974243,0.9073930978775024,0.010204908438026905,0.08524032682180405
101.28680419921875,-0.09791252017021179,52.08113479614258,1.0612273216247559,9.552555084228516,-1.5362954139709473,0.8410271406173706,0.03792934492230415,0.03935650736093521
101.7496109008789,-0.13765577971935272,52.33580780029297,0.7527615427970886,9.595491409301758,-1.490146517753601,0.8401920795440674,0.18795394897460938,0.023715084418654442
102.14899444580078,-0.16376596689224243,52.58237075805664,0.5356547236442566,9.679824829101562,-1.613106369972229,0.812534511089325,0.2929098606109619,0.0006882496527396142
102.4708480834961,-0.1861059069633484,52.78251266479492,0.4841943681240082,9.608176231384277,-1.7372535467147827,0.7289240956306458,0.3188340663909912,-0.016281049698591232
102.75082397460938,-0.21355491876602173,52.927425384521484,0.3653448224067688,9.567447662353516,-1.9831233024597168,0.6495170593261719,0.3165644705295563,-0.015026362612843513
103.01367950439453,-0.24137790501117706,53.0493049621582,0.21475614607334137,9.625014305114746,-2.0406651496887207,0.5721490383148193,0.2519926428794861,-0.005762661341577768
103.29524993896484,-0.2823697030544281,53.216670989990234,0.44457927346229553,9.360824584960938,-2.2056078910827637,0.5402199029922485,0.2749553620815277,-0.006110602989792824
103.57210540771484,-0.3183209002017975,53.33486557006836,0.19323167204856873,9.391054153442383,-2.285212755203247,0.5278604030609131,0.2698729336261749,0.007568869274109602
103.8258056640625,-0.33722373843193054,53.40188217163086,-0.11219079792499542,9.409884452819824,-2.297060489654541,0.4999113380908966,0.212073415517807,0.0031417275313287973
104.04975891113281,-0.3558807671070099,53.44891357421875,-0.3565010726451874,9.406134605407715,-2.589827060699463,0.47454309463500977,0.171390563249588,0.012023204006254673
104.2315673828125,-0.3530547618865967,53.45327377319336,-0.44857925176620483,9.507823944091797,-2.635491132736206,0.4199640452861786,0.12054061889648438,0.006328341085463762
104.39532470703125,-0.34375354647636414,53.42306137084961,-0.24877239763736725,9.621472358703613,-2.6018121242523193,0.37508803606033325,0.04991277679800987,0.0023877264466136694
104.52233123779297,-0.3376062214374542,53.3946418762207,-0.08186638355255127,9.740331649780273,-2.5758512020111084,0.33347639441490173,0.008611943572759628,0.004411304835230112
104.60137176513672,-0.3277006149291992,53.3630256652832,0.10078421235084534,9.771388053894043,-2.5384414196014404,0.2661129832267761,-0.01619570329785347,0.0033175579737871885
104.65927124023438,-0.3170555830001831,53.33647537231445,0.24085743725299835,9.723910331726074,-2.3906290531158447,0.20810610055923462,-0.03974996879696846,0.0017112123314291239
104.7033920288086,-0.30802422761917114,53.33305358886719,0.1972978711128235,9.75300121307373,-2.341566562652588,0.16196727752685547,-0.03287532553076744,-0.0011730942642316222
104.73662567138672,-0.3006133735179901,53.334991455078125,0.16815289855003357,9.740554809570312,-2.302443742752075,0.12623649835586548,-0.02363734133541584,-0.007192791439592838
104.76129913330078,-0.30131861567497253,53.340328216552734,0.1878177374601364,9.639439582824707,-2.505082130432129,0.09687860310077667,-0.01629665493965149,-0.0036507851909846067
104.78205871582031,-0.30787909030914307,53.366607666015625,0.13683484494686127,9.41891860961914,-2.5880954265594482,0.07562396675348282,-0.0050950804725289345,-0.0010646880837157369
104.79753112792969,-0.3260613679885864,53.4229621887207,-0.015608061105012894,9.278630256652832,-2.607252359390259,0.060867343097925186,0.028905462473630905,0.0005202367901802063
104.7979965209961,-0.3440745770931244,53.45576477050781,-0.14052894711494446,9.301294326782227,-2.7353835105895996,0.045459162443876266,0.062095195055007935,0.007715636398643255
104.78681182861328,-0.34031617641448975,53.415409088134766,-0.11016491055488586,9.315985679626465,-2.7348873615264893,0.01968163624405861,0.02322997897863388,0.012273901142179966
104.7781753540039,-0.3229808807373047,53.34629440307617,-0.015834180638194084,9.277803421020508,-2.7501602172851562,0.008949453011155128,-0.03769956901669502,0.010689161717891693
104.7685317993164,-0.30569684505462646,53.297462463378906,-0.024595489725470543,9.290042877197266,-2.841270685195923,-0.0019289556657895446,-0.07009878754615784,0.006719119846820831
104.76777648925781,-0.29348939657211304,53.27171325683594,-0.026709701865911484,9.347208976745605,-2.93452525138855,-0.003351271618157625,-0.06442182511091232,0.0001301988959312439
104.76950073242188,-0.2896217405796051,53.25575637817383,-0.01740388013422489,9.41963005065918,-2.906541347503662,0.0029394407756626606,-0.06117001920938492,0.0010369346709921956
104.77355194091797,-0.29160594940185547,53.2490119934082,0.09715767204761505,9.395173072814941,-3.114076614379883,-0.0003762543201446533,-0.03846362605690956,0.0032549728639423847
104.79627990722656,-0.2955487072467804,53.23367691040039,0.2978835999965668,9.292131423950195,-3.1560521125793457,0.013263712637126446,-0.03981739282608032,0.007720478810369968
104.83526611328125,-0.30621764063835144,53.23172378540039,0.39961108565330505,9.281100273132324,-3.252534866333008,0.028828533366322517,-0.02960861101746559,0.012658537365496159
104.8941421508789,-0.3171631693840027,53.2341423034668,0.3827025890350342,9.252921104431152,-3.3199257850646973,0.055333785712718964,-0.015858560800552368,0.01765545643866062
104.95677185058594,-0.32243961095809937,53.23785400390625,0.17288106679916382,9.255245208740234,-3.248331069946289,0.07914026081562042,-0.012093410827219486,0.01612771302461624
105.01158142089844,-0.3248233497142792,53.23894500732422,0.06772768497467041,9.321309089660645,-3.2184135913848877,0.08835253119468689,-0.0025715685915201902,0.012511203996837139
105.05613708496094,-0.31984230875968933,53.216949462890625,0.09829674661159515,9.455498695373535,-3.036478042602539,0.08919370919466019,-0.01411140151321888,0.010919385589659214
105.09315490722656,-0.30805838108062744,53.18911361694336,0.14154194295406342,9.505834579467773,-2.9214138984680176,0.07940848171710968,-0.03528185188770294,0.006927736569195986
105.1259765625,-0.29685330390930176,53.18185043334961,0.09733576327562332,9.549054145812988,-2.8830199241638184,0.07683990150690079,-0.038661807775497437,0.0004990026936866343
105.14986419677734,-0.28906166553497314,53.19060516357422,0.15043790638446808,9.562557220458984,-2.8114676475524902,0.06248300150036812,-0.021567940711975098,-0.005365163087844849
105.18045806884766,-0.2814237177371979,53.19007873535156,0.21273784339427948,9.505666732788086,-2.825476884841919,0.05878489464521408,-0.013503060676157475,-0.0074338167905807495
105.21104431152344,-0.2740282416343689,53.1806755065918,0.2906084656715393,9.509377479553223,-2.739381790161133,0.059735968708992004,-0.020265955477952957,-0.006702543701976538
105.239013671875,-0.26862040162086487,53.175148010253906,0.3124178647994995,9.52657699584961,-2.7582156658172607,0.05499963089823723,-0.02036392316222191,-0.005057081114500761
105.27489471435547,-0.26553308963775635,53.17324447631836,0.20619378983974457,9.430192947387695,-2.7062175273895264,0.056129127740859985,-0.019839031621813774,-0.004325061570852995
105.30760192871094,-0.2661187946796417,53.17874526977539,0.08724917471408844,9.411603927612305,-2.7085323333740234,0.0641087144613266,-0.013389441184699535,-0.0011552127543836832
105.32868957519531,-0.2629905343055725,53.183555603027344,0.03460577130317688,9.396186828613281,-2.7325375080108643,0.051788438111543655,-0.005152077879756689,-0.0007938594790175557
105.35376739501953,-0.2537115812301636,53.175209045410156,-0.01106677483767271,9.379117965698242,-2.6718831062316895,0.05177651345729828,-0.00980906467884779,-0.003924965858459473
105.3719482421875,-0.24291640520095825,53.1612663269043,-0.08289775252342224,9.44414234161377,-2.6026065349578857,0.04632006585597992,-0.021750478073954582,-0.004735961090773344
105.38594055175781,-0.23037947714328766,53.14673614501953,-0.14141102135181427,9.453335762023926,-2.6447689533233643,0.039678994566202164,-0.024566050618886948,-0.007055327761918306
105.39960479736328,-0.21422940492630005,53.11601638793945,-0.18406587839126587,9.448808670043945,-2.6207103729248047,0.03356226533651352,-0.035289302468299866,-0.008203835226595402
105.41888427734375,-0.1969062089920044,53.06684112548828,-0.19875171780586243,9.41366195678711,-2.612053394317627,0.03238190338015556,-0.056127093732357025,-0.007988887839019299
105.44850158691406,-0.18418660759925842,53.00453567504883,-0.17169460654258728,9.388921737670898,-2.6539440155029297,0.0371420755982399,-0.07743316143751144,-0.0027943404857069254
105.48917388916016,-0.17446549236774445,52.93889617919922,-0.10493598878383636,9.357413291931152,-2.6532199382781982,0.04918966442346573,-0.09669662266969681,0.006097368896007538
105.53882598876953,-0.16395381093025208,52.88227462768555,-0.11791028082370758,9.359798431396484,-2.665689468383789,0.06117019057273865,-0.1027926653623581,0.009053015150129795
105.59194946289062,-0.15387070178985596,52.83177185058594,-0.0927293673157692,9.38044548034668,-2.706620931625366,0.07695537805557251,-0.10103846341371536,0.009517557919025421
105.63590240478516,-0.14360827207565308,52.77552032470703,-0.039178136736154556,9.431471824645996,-2.676846742630005,0.07928555458784103,-0.09834954142570496,0.009988807141780853
105.67362976074219,-0.12998373806476593,52.70255661010742,-0.03182755038142204,9.454071998596191,-2.649622917175293,0.07669386267662048,-0.10893123596906662,0.012406149879097939
105.70076751708984,-0.11410008370876312,52.622802734375,0.004314585588872433,9.529592514038086,-2.537095785140991,0.07072707265615463,-0.12526924908161163,0.01271907426416874
105.71308898925781,-0.1013207882642746,52.5413703918457,0.1159621998667717,9.643889427185059,-2.446744680404663,0.05566570907831192,-0.13190098106861115,0.014279969036579132
105.71635437011719,-0.0898272767663002,52.460784912109375,0.08888520300388336,9.74342155456543,-2.3614392280578613,0.03892147168517113,-0.1429785192012787,0.01905188336968422
105.72209167480469,-0.07852671295404434,52.40461730957031,0.01495290920138359,9.751111030578613,-2.414374351501465,0.02482571266591549,-0.13655948638916016,0.017637765035033226
105.73379516601562,-0.06848974525928497,52.372222900390625,0.07001436501741409,9.74117660522461,-2.447300672531128,0.026643838733434677,-0.11283868551254272,0.012635628692805767
105.74230194091797,-0.05663935840129852,52.343807220458984,0.1439264565706253,9.747459411621094,-2.581653594970703,0.021210871636867523,-0.08967854827642441,0.007160940207540989
105.75446319580078,-0.04565981775522232,52.3242301940918,0.15073458850383759,9.717714309692383,-2.683384418487549,0.022942015901207924,-0.08333587646484375,0.002703629434108734
105.7617416381836,-0.041903212666511536,52.33949279785156,0.2798667550086975,9.702213287353516,-2.7242989540100098,0.022137351334095,-0.05133599415421486,-0.0010203570127487183
105.76439666748047,-0.0433819554746151,52.379093170166016,0.3739057183265686,9.595834732055664,-2.783207893371582,0.016221219673752785,-0.015258789993822575,-0.006074830889701843
105.76397705078125,-0.052857138216495514,52.435157775878906,0.3503907322883606,9.451925277709961,-2.805940866470337,0.013290159404277802,0.02383534051477909,-0.007464737631380558
105.75248718261719,-0.06610088050365448,52.48929977416992,0.2747267782688141,9.404621124267578,-2.8366305828094482,0.0049797832034528255,0.05198773741722107,-0.0054433951154351234
105.7358169555664,-0.07830643653869629,52.53508377075195,0.1836635172367096,9.364301681518555,-2.7681539058685303,-0.008978322148323059,0.06124471500515938,-0.0015821310225874186
105.72433471679688,-0.08823753893375397,52.586605072021484,0.08514612913131714,9.336027145385742,-2.856647491455078,-0.012373552657663822,0.06554556638002396,-0.0011526048183441162
105.71588897705078,-0.09665917605161667,52.643592834472656,0.028108924627304077,9.378083229064941,-2.8737969398498535,-0.01387372612953186,0.07899310439825058,-0.00426173210144043
105.71453857421875,-0.10169816017150879,52.6917610168457,-0.02525322511792183,9.381349563598633,-2.922447681427002,-0.010488183237612247,0.07833932340145111,-0.0058423737064003944
105.71810150146484,-0.1057877466082573,52.740234375,-0.1314411610364914,9.400924682617188,-2.878939390182495,-0.002979486947879195,0.076072096824646,-0.008852035738527775
105.71923828125,-0.11166854202747345,52.789329528808594,-0.16790421307086945,9.413233757019043,-2.8465986251831055,0.0014534221263602376,0.07785504311323166,-0.00921003520488739
105.71870422363281,-0.11909808963537216,52.83811950683594,-0.07806869596242905,9.404166221618652,-2.806979179382324,0.00031236562062986195,0.07588957250118256,-0.009198860265314579
105.72188568115234,-0.1295517385005951,52.88653564453125,0.05462242290377617,9.374701499938965,-2.751113176345825,0.00295247882604599,0.07989389449357986,-0.006778912153095007
105.72660827636719,-0.14115454256534576,52.935909271240234,0.10640259087085724,9.348251342773438,-2.764517068862915,0.0056894500739872456,0.07473695278167725,-0.003966689575463533
105.73148345947266,-0.15401926636695862,52.98658752441406,0.12764322757720947,9.385120391845703,-2.7666707038879395,0.00829603523015976,0.08605588972568512,-0.002884492976590991
105.7408447265625,-0.16494418680667877,53.015480041503906,0.08475515991449356,9.39523696899414,-2.7393312454223633,0.00867005530744791,0.07221941649913788,0.00036116698174737394
105.75419616699219,-0.1774110496044159,53.0434684753418,-0.07284419983625412,9.46546745300293,-2.70322585105896,0.01867954060435295,0.059873808175325394,0.005246513988822699
105.7562255859375,-0.18833427131175995,53.07540512084961,-0.16873598098754883,9.52719783782959,-2.654951572418213,0.015987271443009377,0.05768407881259918,0.006564893294125795
105.75264739990234,-0.19773094356060028,53.103721618652344,-0.13847358524799347,9.518792152404785,-2.6406373977661133,0.008952058851718903,0.05353335291147232,0.005689449142664671
105.74632263183594,-0.20675881206989288,53.12915802001953,-0.050303079187870026,9.498708724975586,-2.513219118118286,0.003514625132083893,0.048864077776670456,0.006998144090175629
105.73357391357422,-0.21412694454193115,53.153663635253906,0.04584668576717377,9.471324920654297,-2.5141329765319824,-0.002837926149368286,0.044496919959783554,0.005544163752347231
105.71263885498047,-0.22391806542873383,53.18523406982422,0.06891472637653351,9.515029907226562,-2.522735834121704,-0.013179333880543709,0.04185532405972481,0.00593718234449625
105.68843078613281,-0.2363918423652649,53.23009490966797,0.08371427655220032,9.55992317199707,-2.569457769393921,-0.023388490080833435,0.05314815789461136,0.004845299292355776
105.6718521118164,-0.25055262446403503,53.27651596069336,0.10175736248493195,9.519227027893066,-2.6162662506103516,-0.02916567027568817,0.06278138607740402,0.004591979086399078
105.66704559326172,-0.26665496826171875,53.320823669433594,0.13533495366573334,9.443319320678711,-2.664252281188965,-0.02022162452340126,0.06786642223596573,0.0058682640083134174
105.66544342041016,-0.2842070460319519,53.365325927734375,0.1241312026977539,9.39333438873291,-2.763977527618408,-0.014415386132895947,0.06971731781959534,0.008590892888605595
105.67240142822266,-0.3029288351535797,53.415504455566406,0.1366136074066162,9.331202507019043,-2.7890210151672363,-0.0056330119259655476,0.07396508008241653,0.009506382048130035
105.68738555908203,-0.32084470987319946,53.465423583984375,0.13926684856414795,9.317461013793945,-2.7953295707702637,0.006415882613509893,0.08154009282588959,0.010601618327200413
105.7049789428711,-0.33333900570869446,53.504085540771484,0.10485342890024185,9.343377113342285,-2.8066258430480957,0.01716502197086811,0.07737018167972565,0.009203329682350159
105.72010803222656,-0.3449966311454773,53.538238525390625,0.07814515382051468,9.36652946472168,-2.7635550498962402,0.02286546304821968,0.0675685778260231,0.007853657007217407
105.73474884033203,-0.358525812625885,53.57233810424805,0.05409253016114235,9.394721031188965,-2.71172833442688,0.023621508851647377,0.06525983661413193,0.008529240265488625
105.75101470947266,-0.3721044957637787,53.598201751708984,0.04382197558879852,9.440126419067383,-2.68560528755188,0.027714861556887627,0.058565109968185425,0.009682591073215008
105.7625732421875,-0.38395851850509644,53.61308670043945,0.03838652744889259,9.4845609664917,-2.631875991821289,0.027123279869556427,0.049179982393980026,0.013142638839781284
105.76506805419922,-0.3903500735759735,53.61716842651367,0.08098092675209045,9.514500617980957,-2.589937210083008,0.02347473055124283,0.03263559564948082,0.01312997192144394
105.75714874267578,-0.395792156457901,53.62065505981445,0.16345974802970886,9.542803764343262,-2.563602924346924,0.010642596520483494,0.01911092735826969,0.012542866170406342
105.75174713134766,-0.4019377529621124,53.631282806396484,0.1912105530500412,9.51720142364502,-2.584216833114624,0.0015819446416571736,0.014549680054187775,0.011819788254797459
105.75489044189453,-0.4083309769630432,53.652870178222656,0.18395677208900452,9.524099349975586,-2.635042667388916,0.0023329630494117737,0.01783278025686741,0.009762310422956944
105.7572021484375,-0.4151647388935089,53.68171691894531,0.16282814741134644,9.48913288116455,-2.6725926399230957,0.007561408448964357,0.028475932776927948,0.006304122973233461
105.75430297851562,-0.4234994947910309,53.71021270751953,0.15128061175346375,9.453727722167969,-2.605358123779297,0.0017024577828124166,0.033443424850702286,0.005012005567550659
105.75740814208984,-0.4323636591434479,53.7368049621582,0.11252036690711975,9.441091537475586,-2.654897689819336,0.0037411232478916645,0.03925134614109993,0.005553104914724827
105.76166534423828,-0.44028177857398987,53.759761810302734,0.0998464897274971,9.436837196350098,-2.6786458492279053,0.0063227503560483456,0.03543812781572342,0.005508773028850555
105.7662353515625,-0.44916635751724243,53.78422164916992,0.1289314180612564,9.463554382324219,-2.7023277282714844,0.007656589150428772,0.03844201937317848,0.006224960088729858
105.76771545410156,-0.45550501346588135,53.80443572998047,0.15983276069164276,9.46604061126709,-2.7020490169525146,0.009559656493365765,0.034666623920202255,0.006381982006132603
105.76475524902344,-0.4587085247039795,53.823272705078125,0.19937655329704285,9.467133522033691,-2.7152655124664307,0.0035239383578300476,0.03304612264037132,0.004678032360970974
105.76726531982422,-0.4617001414299011,53.841209411621094,0.2354429066181183,9.4500093460083,-2.7124879360198975,0.0036967918276786804,0.02700556255877018,0.0019473956199362874
105.76769256591797,-0.46715596318244934,53.86174011230469,0.22921064496040344,9.430176734924316,-2.6865954399108887,0.007036515045911074,0.029700059443712234,0.0030538069549947977
105.76026153564453,-0.4711483120918274,53.876285552978516,0.21079866588115692,9.412576675415039,-2.678687572479248,0.00022370369697455317,0.026390889659523964,0.0021243467926979065
105.75431823730469,-0.4776696562767029,53.88999938964844,0.21934372186660767,9.392985343933105,-2.693826675415039,-0.003360956907272339,0.02158489264547825,0.004582293331623077
105.75194549560547,-0.48468971252441406,53.906803131103516,0.19250190258026123,9.4187650680542,-2.726511001586914,-0.0040549784898757935,0.022718312218785286,0.00585578428581357
105.75546264648438,-0.4878999888896942,53.917236328125,0.17474894225597382,9.46942138671875,-2.699275016784668,-0.0006504357443191111,0.022212974727153778,0.006383099127560854
105.76268768310547,-0.48683786392211914,53.91908645629883,0.2111828476190567,9.470539093017578,-2.769773483276367,0.0054037198424339294,0.011275149881839752,0.0037895517889410257
105.76947021484375,-0.4861633777618408,53.923133850097656,0.2222602516412735,9.472285270690918,-2.738330841064453,0.009101071394979954,0.005181692540645599,0.0037932770792394876
105.77864837646484,-0.48561012744903564,53.93258285522461,0.2450522929430008,9.465983390808105,-2.735185146331787,0.01074466947466135,0.004120729863643646,0.0008216127753257751
105.78929901123047,-0.48619240522384644,53.9386100769043,0.26117151975631714,9.430736541748047,-2.768709182739258,0.017055312171578407,0.008126907050609589,0.0014895574422553182
105.79133605957031,-0.4817321300506592,53.92911911010742,0.23144418001174927,9.419259071350098,-2.809356212615967,0.014861860312521458,-0.002276152605190873,0.0013677403330802917
105.7942123413086,-0.477104514837265,53.9183349609375,0.22406962513923645,9.3845796585083,-2.831491470336914,0.008082577027380466,-0.016404692083597183,0.0010518358321860433
105.80631256103516,-0.4741281569004059,53.91455078125,0.22887368500232697,9.36430835723877,-2.8355469703674316,0.014132077805697918,-0.015038996934890747,0.0016009435057640076
105.81493377685547,-0.4687577486038208,53.90798568725586,0.21538075804710388,9.375314712524414,-2.800781726837158,0.017525069415569305,-0.018085913732647896,0.00024493783712387085
105.81878662109375,-0.46323874592781067,53.89863586425781,0.20050489902496338,9.426219940185547,-2.800910711288452,0.014051237143576145,-0.01962818019092083,-0.0005468724993988872
105.82453918457031,-0.45629388093948364,53.8847770690918,0.18192577362060547,9.435205459594727,-2.8162500858306885,0.012533926405012608,-0.025927647948265076,-2.793967905745376e-05
105.83191680908203,-0.44802743196487427,53.86835861206055,0.17141900956630707,9.47557258605957,-2.8107247352600098,0.013831071555614471,-0.029471145942807198,-0.001617893693037331
105.83460235595703,-0.4383419156074524,53.839569091796875,0.19384989142417908,9.485404014587402,-2.82124924659729,0.01382138766348362,-0.03721043840050697,-0.0004589558229781687
105.83185577392578,-0.42439255118370056,53.802879333496094,0.21548423171043396,9.472359657287598,-2.8535337448120117,0.006783567368984222,-0.05448870360851288,0.00032018873025663197
105.8368911743164,-0.41066521406173706,53.77786636352539,0.26398715376853943,9.418753623962402,-2.9013309478759766,0.004223174881190062,-0.06037168204784393,-0.0026870521251112223
105.85073852539062,-0.4029947519302368,53.77228546142578,0.35777875781059265,9.355904579162598,-2.8948779106140137,0.013411976397037506,-0.05220808461308479,-0.004088506568223238
105.86307525634766,-0.39772337675094604,53.78221893310547,0.4008100926876068,9.348190307617188,-2.8977978229522705,0.017337320372462273,-0.03095753863453865,-0.004702806938439608
105.87775421142578,-0.3895150125026703,53.7941780090332,0.35548269748687744,9.33885669708252,-2.8452272415161133,0.02014879696071148,-0.017084183171391487,-0.008831547573208809
105.8905029296875,-0.3806424140930176,53.80727767944336,0.27160149812698364,9.37175178527832,-2.8473191261291504,0.025327319279313087,-0.007934123277664185,-0.011190027929842472
105.89443969726562,-0.37004002928733826,53.81974411010742,0.20603355765342712,9.399759292602539,-2.8853349685668945,0.019612351432442665,-0.0016935169696807861,-0.014591218903660774
105.89557647705078,-0.35950767993927,53.82868576049805,0.16894766688346863,9.43187141418457,-2.796326160430908,0.015131570398807526,-0.0008717179880477488,-0.016126781702041626
105.89459991455078,-0.3472250699996948,53.83392333984375,0.15087082982063293,9.446824073791504,-2.7424850463867188,0.008914433419704437,-0.0013560056686401367,-0.016205010935664177
105.89777374267578,-0.3337932527065277,53.838253021240234,0.14276181161403656,9.44705867767334,-2.6544506549835205,0.006952323485165834,-0.007116422057151794,-0.01879260130226612
105.90154266357422,-0.32616716623306274,53.855831146240234,0.13930180668830872,9.497878074645996,-2.5767557621002197,0.009911693632602692,-0.003968552220612764,-0.017815085127949715
105.90009307861328,-0.3204229176044464,53.88535690307617,0.13589732348918915,9.51504898071289,-2.5907771587371826,0.006204658187925816,0.012121166102588177,-0.017971545457839966
105.89789581298828,-0.3121121823787689,53.90995788574219,0.10223913937807083,9.530418395996094,-2.5753066539764404,0.00382792204618454,0.02001877874135971,-0.019363315775990486
105.89425659179688,-0.3010197877883911,53.92531204223633,0.08826583623886108,9.504744529724121,-2.6536974906921387,0.0012135133147239685,0.018824080005288124,-0.020083412528038025
105.88815307617188,-0.2882642447948456,53.932403564453125,0.11704069375991821,9.487882614135742,-2.696614980697632,-0.00118762266356498,0.011072494089603424,-0.021040812134742737
