Roll,Pitch,Yaw,AccX,AccY,AccZ,GyroX,GyroY,GyroZ
10.04593276977539,82.43766021728516,73.06163787841797,-9.682472229003906,0.2181614339351654,1.2582553625106812,-0.006141886115074158,0.00954363588243723,0.0024246054235845804
10.056180953979492,83.01944732666016,73.78348541259766,-9.734938621520996,0.20825979113578796,1.1716177463531494,-0.0021420421544462442,-0.01959763467311859,0.001983903581276536
10.013903617858887,82.98580169677734,73.73486328125,-9.744342803955078,0.21843719482421875,1.1854770183563232,-0.0012967733200639486,-0.014531612396240234,0.002034195000305772
9.969646453857422,82.94792938232422,73.6923599243164,-9.680057525634766,0.2418910562992096,1.1793078184127808,-0.0022869559470564127,-0.038795918226242065,0.0029617927502840757
9.912087440490723,82.90422058105469,73.634033203125,-9.593880653381348,0.2638404369354248,1.2339566946029663,-0.004875659942626953,-0.06209016963839531,0.003612600965425372
9.919108390808105,82.9157943725586,73.6379623413086,-9.559219360351562,0.2667964994907379,1.3309760093688965,-0.003946945536881685,-0.05100109428167343,0.002670475048944354
9.988189697265625,82.97261810302734,73.7042236328125,-9.661577224731445,0.2573005259037018,1.392727017402649,-0.0022631143219769,0.012347662821412086,0.0006878750282339752
10.010431289672852,82.9889907836914,73.72591400146484,-9.68010139465332,0.2579677104949951,1.3246333599090576,-0.0028636306524276733,0.03994051739573479,0.0013036653399467468
9.952946662902832,82.94876098632812,73.6692123413086,-9.664580345153809,0.25661611557006836,1.276497721672058,-0.005433335900306702,0.004290231037884951,0.0015219674678519368
9.916255950927734,82.92066192626953,73.63245391845703,-9.619769096374512,0.24886852502822876,1.335686206817627,-0.006500259041786194,-0.032481927424669266,0.0024633482098579407
9.95231819152832,82.95098876953125,73.6684341430664,-9.613622665405273,0.2345540076494217,1.4079123735427856,-0.006396323908120394,-0.009731949307024479,0.0022156164050102234
10.005135536193848,82.9979019165039,73.7212142944336,-9.607452392578125,0.23244160413742065,1.394860029220581,-0.006537512876093388,0.033930134028196335,0.0012127682566642761
10.012871742248535,83.01124572753906,73.72901916503906,-9.642208099365234,0.23159998655319214,1.3343724012374878,-0.006039813626557589,0.0420859158039093,0.00034440314630046487
9.99423599243164,82.99840545654297,73.71172332763672,-9.666683197021484,0.2453652024269104,1.3204734325408936,-0.007598475087434053,0.018339790403842926,0.0009430572972632945
9.984166145324707,82.99268341064453,73.70242309570312,-9.641207695007324,0.2485741227865219,1.330302119255066,-0.008030235767364502,0.004184059798717499,0.0021478168200701475
9.99620532989502,83.0096206665039,73.71524047851562,-9.603096961975098,0.2697519361972809,1.351666808128357,-0.007892400026321411,0.007355773355811834,0.0009784474968910217
10.040119171142578,83.04515075683594,73.76065826416016,-9.62812614440918,0.2782847285270691,1.3554377555847168,-0.008445979095995426,0.029420293867588043,0.0012168658431619406
10.07259750366211,83.07360076904297,73.79461669921875,-9.662480354309082,0.2645756006240845,1.322676181793213,-0.008591264486312866,0.043958988040685654,0.000895373523235321
10.067564964294434,83.07633209228516,73.79157257080078,-9.677911758422852,0.23754283785820007,1.278651475906372,-0.008966771885752678,0.03889072686433792,0.0011293216375634074
10.030104637145996,83.05709075927734,73.75656127929688,-9.648137092590332,0.208602175116539,1.241231083869934,-0.010028856806457043,0.012942219153046608,0.000712461827788502
10.013291358947754,83.04788208007812,73.74182891845703,-9.64240550994873,0.19315530359745026,1.2741154432296753,-0.010859222151339054,-0.005289167165756226,0.0015014782547950745
10.02936840057373,83.06571197509766,73.75933837890625,-9.662864685058594,0.18333084881305695,1.2981197834014893,-0.00999793317168951,0.005163437686860561,0.0013934449525550008
10.051175117492676,83.08976745605469,73.78277587890625,-9.668933868408203,0.15821565687656403,1.2894442081451416,-0.010148437693715096,0.024155713617801666,0.0007493423181585968
10.050743103027344,83.09561920166016,73.7828140258789,-9.667092323303223,0.16271725296974182,1.238701343536377,-0.009411199018359184,0.026510844007134438,0.000616721692495048
10.029227256774902,83.08352661132812,73.7618637084961,-9.671664237976074,0.14000651240348816,1.2187918424606323,-0.008669868111610413,0.010889583267271519,0.000858493207488209
10.01150131225586,83.07227325439453,73.74465942382812,-9.67440414428711,0.140550434589386,1.2177354097366333,-0.00884868111461401,-0.0024024397134780884,0.0015111641259863973
10.006115913391113,83.07106018066406,73.73860931396484,-9.680647850036621,0.1349523961544037,1.2205766439437866,-0.00820010807365179,-0.0035669656936079264,0.0017268583178520203
10.005849838256836,83.07779693603516,73.7364273071289,-9.677592277526855,0.13680976629257202,1.233634114265442,-0.006471202243119478,0.0023415307514369488,0.0013096259208396077
10.002588272094727,83.08440399169922,73.73164367675781,-9.681743621826172,0.14205621182918549,1.2148644924163818,-0.005451217293739319,0.008795597590506077,0.00044275083928368986
9.999969482421875,83.08670806884766,73.72708129882812,-9.672059059143066,0.147003173828125,1.203989863395691,-0.005469098221510649,0.008095242083072662,0.0003753229684662074
10.002103805541992,83.09090423583984,73.72625732421875,-9.676197052001953,0.16729941964149475,1.2094229459762573,-0.0037539752665907145,0.007796100806444883,0.0009736046195030212
10.003379821777344,83.09868621826172,73.72540283203125,-9.697632789611816,0.17378512024879456,1.2033859491348267,-0.0036168850492686033,0.010903365910053253,0.00046771022607572377
10.004454612731934,83.1034927368164,73.7238998413086,-9.694023132324219,0.18451747298240662,1.199854850769043,-0.0033136457204818726,0.01363698486238718,0.0004654750518966466
9.993779182434082,83.09941864013672,73.71110534667969,-9.671737670898438,0.20738384127616882,1.1765251159667969,-0.002863630885258317,0.008864887058734894,0.0007325783954001963
9.973722457885742,83.08970642089844,73.68941497802734,-9.686666488647461,0.22103768587112427,1.1762453317642212,-0.003991649020463228,0.0006930903182365,0.0008517876267433167
9.954878807067871,83.07762908935547,73.66778564453125,-9.693938255310059,0.23008832335472107,1.185346007347107,-0.0033389776945114136,-0.005888566840440035,0.000864081084728241
9.94044017791748,83.06488800048828,73.65129089355469,-9.70026683807373,0.2506975531578064,1.1983814239501953,-0.003030151128768921,-0.011660532094538212,0.0016687439056113362
9.9213228225708,83.05508422851562,73.63044738769531,-9.670397758483887,0.25982585549354553,1.2047250270843506,-0.003829970955848694,-0.01316890213638544,0.002051331102848053
9.898575782775879,83.04698181152344,73.60629272460938,-9.671488761901855,0.2779863178730011,1.2032415866851807,-0.003604218363761902,-0.012988226488232613,0.0007787721115164459
9.88368034362793,83.03717041015625,73.59153747558594,-9.680299758911133,0.28051674365997314,1.2194256782531738,-0.005168468225747347,-0.011651962995529175,0.0011986122699454427
9.859495162963867,83.02000427246094,73.56717681884766,-9.673161506652832,0.29434576630592346,1.2265846729278564,-0.0056523834355175495,-0.014970451593399048,0.0018270686268806458
9.82645034790039,82.99666595458984,73.53455352783203,-9.68358325958252,0.291645884513855,1.239956021308899,-0.006513670552521944,-0.023690611124038696,0.0018833206268027425
9.798011779785156,82.9740982055664,73.50697326660156,-9.66684341430664,0.28714224696159363,1.2411562204360962,-0.007374584674835205,-0.0291578471660614,0.0025162475649267435
9.776406288146973,82.95722198486328,73.48695373535156,-9.65894889831543,0.2853090763092041,1.2744983434677124,-0.008096173405647278,-0.030944501981139183,0.0027282163500785828
9.765403747558594,82.95024108886719,73.47760009765625,-9.650611877441406,0.2760491967201233,1.2884379625320435,-0.009237603284418583,-0.024441257119178772,0.0029226765036582947
9.75278091430664,82.94706726074219,73.46566772460938,-9.663322448730469,0.2704814672470093,1.3005143404006958,-0.008961930871009827,-0.015359372831881046,0.002269633114337921
9.736054420471191,82.9393081665039,73.44989776611328,-9.655729293823242,0.2579406499862671,1.2995367050170898,-0.008616596460342407,-0.011441856622695923,0.0014221296878531575
9.717536926269531,82.92413330078125,73.4333724975586,-9.656545639038086,0.23640328645706177,1.2807763814926147,-0.009378418326377869,-0.014314803294837475,0.002162344753742218
9.694145202636719,82.90826416015625,73.41143035888672,-9.640336036682129,0.22852574288845062,1.295287013053894,-0.009945408441126347,-0.02023577317595482,0.0025877724401652813
9.676214218139648,82.89952087402344,73.39424896240234,-9.65066146850586,0.21620236337184906,1.3108668327331543,-0.009503215551376343,-0.018622728064656258,0.0019529834389686584
9.667037963867188,82.89637756347656,73.3853759765625,-9.643180847167969,0.20776619017124176,1.3172104358673096,-0.008829310536384583,-0.013547763228416443,0.001847185310907662
9.664080619812012,82.89888763427734,73.38241577148438,-9.652237892150879,0.1926271766424179,1.310821294784546,-0.008424372412264347,-0.007199123501777649,0.0014821068616583943
9.6654052734375,82.90544128417969,73.38267517089844,-9.649744987487793,0.19373464584350586,1.314923882484436,-0.007292255759239197,0.0018382446141913533,0.0012582166818901896
9.662099838256836,82.90986633300781,73.37824249267578,-9.646645545959473,0.175043985247612,1.2976207733154297,-0.006448106374591589,0.005885773338377476,0.0007135795312933624
9.66115951538086,82.91581726074219,73.37566375732422,-9.64312744140625,0.171039417386055,1.301124930381775,-0.006005167495459318,0.007119216490536928,0.000665523111820221
9.666465759277344,82.92732238769531,73.37886810302734,-9.664101600646973,0.16881346702575684,1.310156226158142,-0.004582107067108154,0.012863987125456333,7.878988981246948e-05
9.670393943786621,82.93576049804688,73.38196563720703,-9.65599536895752,0.17245563864707947,1.3043718338012695,-0.00487081753090024,0.017908401787281036,0.0003037973656319082
9.663594245910645,82.93620300292969,73.37385559082031,-9.64837646484375,0.1739710420370102,1.2855079174041748,-0.005077943671494722,0.013470463454723358,0.0002751127176452428
9.662701606750488,82.93987274169922,73.37183380126953,-9.65275764465332,0.1945178210735321,1.300902247428894,-0.0047557055950164795,0.008790751919150352,0.0005593522801063955
9.67878246307373,82.95585632324219,73.38724517822266,-9.665033340454102,0.19076524674892426,1.310495376586914,-0.0054109846241772175,0.014868192374706268,0.0006167218671180308
9.701929092407227,82.9756851196289,73.40922546386719,-9.663151741027832,0.2015056610107422,1.3021912574768066,-0.004910678137093782,0.026105530560016632,0.0008499249815940857
9.715721130371094,82.98689270019531,73.42330169677734,-9.660394668579102,0.21876348555088043,1.2843968868255615,-0.005364045966416597,0.027576275169849396,0.0009866432519629598
9.721921920776367,82.99296569824219,73.43031311035156,-9.674360275268555,0.21918900310993195,1.2719171047210693,-0.006549432873725891,0.022434256970882416,0.0018360094400122762
9.726387977600098,83.00154113769531,73.43486022949219,-9.677452087402344,0.22699426114559174,1.266708493232727,-0.007103383541107178,0.019974077120423317,0.0011963769793510437
9.740478515625,83.0130386352539,73.44878387451172,-9.681785583496094,0.23068289458751678,1.2625690698623657,-0.0065632169134914875,0.021461952477693558,0.0014210119843482971
9.757147789001465,83.02517700195312,73.46720886230469,-9.678175926208496,0.2278335839509964,1.2558525800704956,-0.007643924560397863,0.02283696085214615,0.0017398969503119588
9.772185325622559,83.03767395019531,73.48347473144531,-9.673473358154297,0.23363059759140015,1.2324814796447754,-0.008495524525642395,0.024355389177799225,0.0022364782635122538
9.785937309265137,83.05098724365234,73.49678039550781,-9.67300796508789,0.23649926483631134,1.2164411544799805,-0.007917732931673527,0.024905987083911896,0.0014888123841956258
9.806958198547363,83.06523132324219,73.5188217163086,-9.678472518920898,0.2374342828989029,1.2156567573547363,-0.008144975639879704,0.026906471699476242,0.002062879502773285
9.821969032287598,83.07774353027344,73.53614044189453,-9.68958568572998,0.2437494397163391,1.2049140930175781,-0.007827208377420902,0.02744663506746292,0.0020431356970220804
9.83112907409668,83.0857925415039,73.54698944091797,-9.70266342163086,0.23275887966156006,1.20138680934906,-0.008536876179277897,0.02605188824236393,0.00182371586561203
9.833048820495605,83.0859375,73.54996490478516,-9.685979843139648,0.2338223159313202,1.1789627075195312,-0.00797659158706665,0.019568393006920815,0.0022562220692634583
9.825996398925781,83.08267211914062,73.54336547851562,-9.69075870513916,0.23496118187904358,1.1890294551849365,-0.008454174734652042,0.011213310062885284,0.0022647902369499207
9.825544357299805,83.08045959472656,73.54190063476562,-9.696004867553711,0.24234698712825775,1.1890232563018799,-0.008323789574205875,0.006723590195178986,0.002009608084335923
9.82970142364502,83.07904815673828,73.54511260986328,-9.692292213439941,0.23700252175331116,1.197239637374878,-0.007674844469875097,0.0050166635774075985,0.003126822877675295
9.823708534240723,83.07725524902344,73.5380859375,-9.682477951049805,0.23758354783058167,1.1972074508666992,-0.007700921501964331,0.003631227184087038,0.002423860365524888
9.822635650634766,83.07569885253906,73.53624725341797,-9.68209171295166,0.2400353103876114,1.2097269296646118,-0.006920098327100277,0.002603418892249465,0.002172403270378709
9.822874069213867,83.0723648071289,73.53407287597656,-9.689789772033691,0.23585492372512817,1.207351803779602,-0.006213412154465914,0.0024268398992717266,0.0025512652937322855
9.81236743927002,83.06511688232422,73.52266693115234,-9.695855140686035,0.2385244071483612,1.219404935836792,-0.0055011361837387085,-0.001230090856552124,0.0025821852032095194
9.801519393920898,83.05725860595703,73.51068115234375,-9.68188190460205,0.23809745907783508,1.2227052450180054,-0.005033240653574467,-0.004857779014855623,0.0017510729376226664
9.80142879486084,83.04924011230469,73.5079116821289,-9.679145812988281,0.24331353604793549,1.22782564163208,-0.005153567064553499,-0.006087496876716614,0.0028235837817192078
9.790996551513672,83.038330078125,73.49530029296875,-9.67457103729248,0.2413026988506317,1.2258400917053223,-0.0053953384049236774,-0.008296594023704529,0.0032631682697683573
9.771744728088379,83.02422332763672,73.47296142578125,-9.672157287597656,0.24818409979343414,1.2405247688293457,-0.0038288538344204426,-0.012566523626446724,0.002424978418275714
9.757791519165039,83.01081848144531,73.45767211914062,-9.669451713562012,0.2511748671531677,1.2548333406448364,-0.004594400525093079,-0.016283245757222176,0.002639553975313902
9.7493896484375,82.9979248046875,73.44964599609375,-9.670354843139648,0.2605780065059662,1.2595230340957642,-0.006290152668952942,-0.01535713765770197,0.0029595571104437113
9.73791217803955,82.98075103759766,73.43672180175781,-9.663677215576172,0.2579318583011627,1.2726823091506958,-0.006232039071619511,-0.018870459869503975,0.0038908799178898335
9.713542938232422,82.96295928955078,73.41116333007812,-9.66943073272705,0.26216012239456177,1.2765671014785767,-0.006155297625809908,-0.021925942972302437,0.003719516098499298
9.688437461853027,82.94417572021484,73.38817596435547,-9.66170597076416,0.25485920906066895,1.2932045459747314,-0.00761151360347867,-0.023902207612991333,0.0023921953979879618
9.680425643920898,82.92915344238281,73.38128662109375,-9.652061462402344,0.25054022669792175,1.3068211078643799,-0.007927417755126953,-0.02660677395761013,0.0038309029769152403
9.679206848144531,82.92754364013672,73.38094329833984,-9.656031608581543,0.23919793963432312,1.3185362815856934,-0.007768720854073763,-0.01873783767223358,0.0033905731979757547
9.683745384216309,82.93109130859375,73.3897476196289,-9.64858341217041,0.22934679687023163,1.3283730745315552,-0.0075578694231808186,-0.0059988354332745075,0.002647005021572113
9.684163093566895,82.9291000366211,73.39674377441406,-9.654484748840332,0.21712151169776917,1.318156361579895,-0.008519366383552551,-0.0014722348423674703,0.0027028843760490417
9.678389549255371,82.9256591796875,73.3987808227539,-9.64357852935791,0.21348971128463745,1.311780571937561,-0.009286031126976013,-0.0031489881221204996,0.0029088931623846292
9.676996231079102,82.92898559570312,73.39602661132812,-9.648992538452148,0.20518460869789124,1.3197224140167236,-0.008762628771364689,0.0003917143330909312,0.0017704445635899901
9.686748504638672,82.93302917480469,73.40823364257812,-9.658270835876465,0.203490749001503,1.3143060207366943,-0.009489431977272034,0.007176958955824375,0.002099015051499009
9.686625480651855,82.93031311035156,73.41346740722656,-9.64995288848877,0.1923513114452362,1.2966029644012451,-0.009197370149195194,0.005689077079296112,0.0027922915760427713
9.680386543273926,82.92454528808594,73.41104888916016,-9.665637969970703,0.20104581117630005,1.296624779701233,-0.008968263864517212,0.0016948209377005696,0.002182834083214402
9.67841911315918,82.9216079711914,73.4056396484375,-9.6705322265625,0.1916438490152359,1.2965420484542847,-0.007941202260553837,-0.0008694826392456889,0.0029446554835885763
9.678765296936035,82.92454528808594,73.40660095214844,-9.65756607055664,0.18838153779506683,1.286397099494934,-0.00774189829826355,0.0024570152163505554,0.0016594306798651814
9.688036918640137,82.92881774902344,73.40998840332031,-9.66532039642334,0.18980753421783447,1.2813353538513184,-0.00781081710010767,0.007159823086112738,0.0024801120162010193
9.685625076293945,82.92948150634766,73.40996551513672,-9.670808792114258,0.19886592030525208,1.2590761184692383,-0.006891415920108557,0.008159317076206207,0.0019552186131477356
9.68021297454834,82.92504119873047,73.40357971191406,-9.675994873046875,0.19608081877231598,1.2553811073303223,-0.006984175648540258,0.005192495882511139,0.001639686874113977
9.678441047668457,82.91844940185547,73.38972473144531,-9.673221588134766,0.21413131058216095,1.2563971281051636,-0.006924197543412447,0.0004952774033881724,0.0023948028683662415
9.677128791809082,82.91454315185547,73.39212799072266,-9.664530754089355,0.22091881930828094,1.2615772485733032,-0.006715208757668734,-0.001298263669013977,0.0029133635107427835
9.674315452575684,82.9145736694336,73.38838958740234,-9.660964012145996,0.22662286460399628,1.2625418901443481,-0.005839020479470491,0.00023711472749710083,0.002059154212474823
9.6793851852417,82.91795349121094,73.40365600585938,-9.659587860107422,0.23746390640735626,1.2611899375915527,-0.006467103958129883,0.003702379995957017,0.00200662761926651
9.689740180969238,82.92272186279297,73.41650390625,-9.675293922424316,0.2426833212375641,1.2582014799118042,-0.006576627492904663,0.007977522909641266,0.0019339845748618245
9.694540977478027,82.92610168457031,73.4215087890625,-9.673250198364258,0.24803611636161804,1.254918098449707,-0.007219241466373205,0.009962357580661774,0.002696179086342454
9.69262981414795,82.92798614501953,73.4109115600586,-9.673933982849121,0.25407806038856506,1.251381516456604,-0.007074327208101749,0.00912007037550211,0.001360662397928536
9.699877738952637,82.93070220947266,73.42608642578125,-9.670998573303223,0.25344058871269226,1.2560683488845825,-0.006510317791253328,0.009582748636603355,0.002342276507988572
9.70293140411377,82.93472290039062,73.4281234741211,-9.677977561950684,0.2656576633453369,1.2521356344223022,-0.007224083412438631,0.010021963156759739,0.0014251098036766052
9.712985038757324,82.93828582763672,73.43720245361328,-9.671476364135742,0.25883400440216064,1.2580692768096924,-0.0076588233932852745,0.012099185027182102,0.002422742545604706
9.69239616394043,82.9181137084961,73.4214096069336,-9.683148384094238,0.2508881390094757,1.2382020950317383,-0.007705762982368469,0.009935162030160427,0.002096779877319932
9.61913013458252,82.85079193115234,73.34075164794922,-9.709771156311035,0.2459161877632141,1.1814883947372437,-0.00853948388248682,-0.02745911478996277,0.0037321823183447123
9.500519752502441,82.746826171875,73.21815490722656,-9.705840110778809,0.24556973576545715,1.210593819618225,-0.009461864829063416,-0.07571801543235779,0.0047238548286259174
9.33475399017334,82.59461975097656,73.0599136352539,-9.71945858001709,0.23550185561180115,1.180098295211792,-0.009195877239108086,-0.12950895726680756,0.005565769970417023
9.122735023498535,82.39305877685547,72.85627746582031,-9.726351737976074,0.22622264921665192,1.1954433917999268,-0.010056796483695507,-0.2087179720401764,0.007834471762180328
8.91061019897461,82.20462036132812,72.62773132324219,-9.708681106567383,0.22237719595432281,1.2554072141647339,-0.010292606428265572,-0.2704222500324249,0.008173475041985512
8.785845756530762,82.12894439697266,72.44829559326172,-9.599700927734375,0.21046577394008636,1.4296263456344604,0.01788158528506756,-0.2659306824207306,0.00023525211145170033
8.822450637817383,82.20467376708984,72.42061614990234,-9.550521850585938,0.20664453506469727,1.5630481243133545,0.06768462061882019,-0.1363154798746109,-0.013576449826359749
8.918720245361328,82.305908203125,72.47168731689453,-9.575553894042969,0.21373696625232697,1.5276418924331665,0.05583595111966133,0.005613825283944607,-0.0110186617821455
8.920255661010742,82.29828643798828,72.453369140625,-9.674646377563477,0.22995541989803314,1.3341480493545532,0.08565615117549896,0.04029441252350807,-0.01619793102145195
8.799917221069336,82.1291275024414,72.36982727050781,-9.716753005981445,0.2924967110157013,1.2636092901229858,0.00615660147741437,-0.042844194918870926,0.0035436823964118958
8.489816665649414,81.77357482910156,72.0590591430664,-9.802691459655762,0.19475612044334412,1.1077989339828491,0.00023003670503385365,-0.20554815232753754,0.008647331967949867
8.107874870300293,81.3001708984375,71.70315551757812,-9.817538261413574,0.23392893373966217,1.1394855976104736,-0.0034391910303384066,-0.4569590091705322,0.014518773183226585
7.813502788543701,80.90457153320312,71.44910430908203,-9.621146202087402,0.21838133037090302,1.5219621658325195,-0.05207330361008644,-0.5739022493362427,0.02401791699230671
7.587963104248047,80.55697631835938,71.2208023071289,-9.639222145080566,0.22621573507785797,1.5096248388290405,-0.022048907354474068,-0.5712108016014099,0.017401039600372314
7.378490447998047,80.15513610839844,71.05704498291016,-9.624519348144531,0.264114111661911,1.5726573467254639,-0.03664424270391464,-0.6071062684059143,0.02623819187283516
7.176736831665039,79.76861572265625,70.88265228271484,-9.601866722106934,0.23910555243492126,1.6813241243362427,-0.07379477471113205,-0.66010582447052,0.036013372242450714
7.012137413024902,79.46823120117188,70.67334747314453,-9.54403018951416,0.29776254296302795,1.8052376508712769,-0.02566356211900711,-0.6173452734947205,0.02488665282726288
6.878509521484375,79.20201873779297,70.52239227294922,-9.530497550964355,0.21315713226795197,1.8670096397399902,0.0202289130538702,-0.5654630064964294,0.012087278068065643
6.789812088012695,78.9872055053711,70.47380065917969,-9.506696701049805,0.18462015688419342,1.9810885190963745,-0.026240603998303413,-0.5133053064346313,0.0225128885358572
6.72352409362793,78.85010528564453,70.42085266113281,-9.501198768615723,0.16184133291244507,2.0190367698669434,-0.0323016420006752,-0.42046865820884705,0.01942647434771061
6.689813137054443,78.77316284179688,70.3927230834961,-9.481689453125,0.22870731353759766,2.0469295978546143,-0.026194019243121147,-0.32650917768478394,0.015206827782094479
6.690016269683838,78.76770782470703,70.3948745727539,-9.478048324584961,0.22899971902370453,2.087576389312744,-0.02355426922440529,-0.222641259431839,0.012061933986842632
6.725735187530518,78.82447814941406,70.42769622802734,-9.471212387084961,0.23897860944271088,2.093348979949951,-0.012988226488232613,-0.10687487572431564,0.006573089398443699
6.7823615074157715,78.897216796875,70.49500274658203,-9.506546020507812,0.22929269075393677,2.041124105453491,-0.0116176912561059,-0.009864196181297302,0.006690062582492828
6.923238277435303,79.13123321533203,70.7278823852539,-9.527678489685059,0.23664899170398712,1.981041431427002,-0.024806708097457886,0.038052912801504135,0.009111128747463226
7.303421497344971,79.82371520996094,71.16474151611328,-9.172220230102539,0.24444031715393066,2.591688394546509,-0.1469452828168869,0.373219758272171,0.027397848665714264
7.736016750335693,80.65978240966797,71.40156555175781,-9.33888053894043,0.19303186237812042,2.3076794147491455,0.029160361737012863,0.8883455395698547,-0.027574315667152405
7.907501220703125,81.00762939453125,71.4592056274414,-9.699767112731934,0.25069183111190796,1.517796516418457,0.16401307284832,0.9479389190673828,-0.06735387444496155
7.774841785430908,80.75040435791016,71.3882064819336,-9.975659370422363,0.27076029777526855,0.9670026302337646,0.05736115574836731,0.550972044467926,-0.027413323521614075
7.423141956329346,80.15997314453125,71.08988952636719,-10.001737594604492,0.22461116313934326,0.9216243624687195,-0.009403005242347717,-0.043702878057956696,0.003933348227292299
7.203916072845459,79.69141387939453,70.9686050415039,-9.740894317626953,0.27049165964126587,1.4565215110778809,-0.04072415828704834,-0.43206730484962463,0.02092292159795761
7.213688850402832,79.62301635742188,71.05545043945312,-9.473152160644531,0.25815829634666443,1.9813885688781738,-0.14967896044254303,-0.42132657766342163,0.05215466767549515
7.341970920562744,79.91258239746094,71.11238861083984,-9.345444679260254,0.21834878623485565,2.2082719802856445,-0.030355902388691902,-0.11946745216846466,0.011544116772711277
7.555664539337158,80.28143310546875,71.29998779296875,-9.407716751098633,0.2509235441684723,2.097665786743164,-0.00028461217880249023,0.20825397968292236,-0.004309788811951876
7.658813953399658,80.48097229003906,71.35379791259766,-9.606620788574219,0.24549418687820435,1.7063504457473755,0.013081174343824387,0.32444068789482117,-0.010221827775239944
7.645451545715332,80.49594116210938,71.29690551757812,-9.698535919189453,0.23461033403873444,1.5182926654815674,0.06709007173776627,0.23777878284454346,-0.023058060556650162
7.651674270629883,80.46826171875,71.33158874511719,-9.677993774414062,0.27312803268432617,1.577588677406311,0.013626554980874062,0.1171661838889122,-0.005723164416849613
7.679257869720459,80.49159240722656,71.36549377441406,-9.605756759643555,0.23916980624198914,1.679139256477356,-0.0022649765014648438,0.08067657053470612,0.0005854294286109507
7.676556587219238,80.5015640258789,71.34567260742188,-9.614365577697754,0.2450888454914093,1.6633806228637695,-0.0014409424038603902,0.08466634154319763,-0.000488758145365864
7.592680931091309,80.3921127319336,71.23968505859375,-9.68985366821289,0.22500059008598328,1.5146621465682983,0.021564776077866554,0.01917463168501854,-0.005413219332695007
7.4615478515625,80.17045593261719,71.11898040771484,-9.710602760314941,0.2564089596271515,1.5059070587158203,0.006036646664142609,-0.12151487916707993,0.00135581917129457
7.352802753448486,79.96533966064453,71.02389526367188,-9.645683288574219,0.2369859665632248,1.6143659353256226,-0.012711811810731888,-0.24098500609397888,0.010059592314064503
7.34385347366333,79.93753051757812,71.02024841308594,-9.515888214111328,0.24353274703025818,1.8655061721801758,-0.014600532129406929,-0.23295958340168,0.010485390201210976
7.545297145843506,80.2002182006836,71.27212524414062,-9.431328773498535,0.23938927054405212,2.0574700832366943,-0.01461021788418293,-0.049883510917425156,0.006144681479781866
8.053576469421387,80.85694885253906,71.93060302734375,-9.270432472229004,0.24407534301280975,2.309441328048706,-0.08819404989480972,0.28796446323394775,0.021464573219418526
8.609665870666504,81.60597229003906,72.51528930664062,-9.343955993652344,0.2574525773525238,2.062115430831909,-0.1801593154668808,0.8306415677070618,0.01789802312850952
8.745631217956543,81.84122467041016,72.48614501953125,-9.770722389221191,0.11911501735448837,1.3635005950927734,0.04681490734219551,0.7807362079620361,-0.030207710340619087
8.628901481628418,81.6993408203125,72.36506652832031,-9.886002540588379,0.2979029417037964,1.0435816049575806,0.0531470850110054,0.4619779884815216,-0.02281295321881771
8.412280082702637,81.40796661376953,72.18619537353516,-9.85996150970459,0.22571387887001038,1.0874805450439453,-0.008125976659357548,0.07623787224292755,0.0012924893526360393
8.308512687683105,81.26592254638672,72.09539794921875,-9.679478645324707,0.22939567267894745,1.4456034898757935,-0.014793130569159985,-0.11725576967000961,0.007385202683508396
8.411369323730469,81.38726043701172,72.2048110961914,-9.517919540405273,0.23077164590358734,1.7490975856781006,-0.025379283353686333,-0.04878602176904678,0.007980129681527615
8.649539947509766,81.6824722290039,72.42022705078125,-9.474675178527832,0.23321150243282318,1.8139153718948364,-0.005366281606256962,0.1519879549741745,-0.0014599416172131896
8.892073631286621,82.03237915039062,72.57482147216797,-9.54260540008545,0.2073746621608734,1.6633925437927246,0.01691487431526184,0.32408979535102844,-0.010868165642023087
9.243935585021973,82.4324722290039,72.76480865478516,-9.568665504455566,0.1954185962677002,1.5522747039794922,0.12708190083503723,0.44459056854248047,-0.04447479918599129
9.819745063781738,82.8608169555664,73.27013397216797,-9.509366035461426,0.26218536496162415,1.5091609954833984,0.1676139235496521,0.583263099193573,-0.031282052397727966
10.092248916625977,83.11239624023438,73.52986145019531,-9.761781692504883,0.21139569580554962,1.2525690793991089,0.08310186117887497,0.6245386600494385,-0.02428632229566574
10.016656875610352,83.0741195678711,73.43589782714844,-9.817834854125977,0.2783530056476593,1.0302273035049438,0.10378274321556091,0.40806207060813904,-0.025929898023605347
9.816641807556152,82.897705078125,73.29362487792969,-9.839679718017578,0.22547689080238342,0.9423118233680725,0.0028667976148426533,0.15455469489097595,-0.005199016537517309
9.646194458007812,82.73040008544922,73.1439208984375,-9.77242374420166,0.22545291483402252,1.0802479982376099,-0.009682032279670238,-0.0481136217713356,0.004161335993558168
9.622302055358887,82.6909408569336,73.15433502197266,-9.655817985534668,0.24756324291229248,1.2923829555511475,-0.03177971765398979,-0.08399040997028351,0.009129384532570839
9.672601699829102,82.73094177246094,73.21563720703125,-9.636482238769531,0.21937929093837738,1.362553358078003,-0.045301403850317,-0.024856630712747574,0.010341967456042767
9.727080345153809,82.79273986816406,73.2491455078125,-9.614792823791504,0.22558508813381195,1.3504153490066528,-0.009805336594581604,0.01894589513540268,0.0015577302547171712
9.7990083694458,82.8553466796875,73.31988525390625,-9.653562545776367,0.22531922161579132,1.299623727798462,-0.006752834655344486,0.07081573456525803,-0.0005520880222320557
9.803021430969238,82.85216522216797,73.32349395751953,-9.702857971191406,0.22821058332920074,1.1977105140686035,-0.006943568587303162,0.06531273573637009,0.00020731241966132075
9.734715461730957,82.78384399414062,73.2557601928711,-9.718900680541992,0.22511954605579376,1.160190463066101,-0.007012115325778723,0.00717546883970499,0.002480484778061509
9.634444236755371,82.6822738647461,73.15758514404297,-9.717316627502441,0.22922982275485992,1.1641558408737183,-0.007759779691696167,-0.055385008454322815,0.004692562390118837
9.532672882080078,82.56853485107422,73.06073760986328,-9.703007698059082,0.22039611637592316,1.199764370918274,-0.010778382420539856,-0.10915734618902206,0.0076128169894218445
9.45950698852539,82.47164916992188,72.9941177368164,-9.691615104675293,0.21923358738422394,1.248772382736206,-0.013105574063956738,-0.138698548078537,0.009999239817261696
9.430898666381836,82.41706085205078,72.98237609863281,-9.658644676208496,0.22836530208587646,1.3148773908615112,-0.019112233072519302,-0.13319183886051178,0.01229737140238285
9.427338600158691,82.40279388427734,72.98762512207031,-9.638864517211914,0.22705358266830444,1.3537986278533936,-0.027552995830774307,-0.09332261979579926,0.011664445511996746
9.428936004638672,82.4066390991211,72.98186492919922,-9.636592864990234,0.22402939200401306,1.3654032945632935,-0.014029441401362419,-0.05735940858721733,0.007296538911759853
9.439865112304688,82.4273910522461,72.9892349243164,-9.639777183532715,0.23010534048080444,1.3649792671203613,-0.007003546226769686,-0.022928044199943542,0.003295205533504486
9.476838111877441,82.47042846679688,73.02522277832031,-9.633925437927246,0.22601008415222168,1.367260217666626,-0.006889552343636751,0.008316151797771454,0.0010522083612158895
9.531694412231445,82.52540588378906,73.08094787597656,-9.638816833496094,0.22204765677452087,1.3669095039367676,-0.005922093987464905,0.05094689130783081,-0.00036954888491891325
9.558088302612305,82.5536117553711,73.10404968261719,-9.659876823425293,0.22694310545921326,1.315764307975769,-0.005913898348808289,0.0606948621571064,-0.0008132308721542358
9.564398765563965,82.56019592285156,73.1116943359375,-9.665379524230957,0.21724696457386017,1.2913308143615723,-0.006102398969233036,0.04667622223496437,-0.00041723260073922575
9.579702377319336,82.56623840332031,73.12630462646484,-9.669790267944336,0.22385530173778534,1.3011443614959717,-0.006821380462497473,0.03240909427404404,0.0005299226031638682
9.612895011901855,82.58731079101562,73.16044616699219,-9.653828620910645,0.22466030716896057,1.3341280221939087,-0.007816031575202942,0.032008253037929535,0.002423860365524888
9.640104293823242,82.61366271972656,73.18802642822266,-9.65202808380127,0.22797253727912903,1.3304654359817505,-0.006215274333953857,0.04466940090060234,0.0008856878848746419
9.634469032287598,82.60543823242188,73.17972564697266,-9.679635047912598,0.22018414735794067,1.2871745824813843,-0.00611543795093894,0.0405309721827507,0.0010466203093528748
9.561325073242188,82.5300064086914,73.10948944091797,-9.69981575012207,0.22623968124389648,1.2294763326644897,-0.006806105840951204,-0.003398582339286804,0.002442859346047044
9.446046829223633,82.40045928955078,72.9938735961914,-9.71803092956543,0.22584383189678192,1.2108995914459229,-0.008964911103248596,-0.08186846971511841,0.005916320253163576
9.345168113708496,82.27584838867188,72.89789581298828,-9.675395965576172,0.22717632353305817,1.2945985794067383,-0.01078881323337555,-0.14219842851161957,0.00986587256193161
9.261884689331055,82.1789321899414,72.8158187866211,-9.645795822143555,0.22894370555877686,1.3618710041046143,-0.011704492382705212,-0.15134963393211365,0.0105025265365839
9.150813102722168,82.0662841796875,72.70721435546875,-9.667214393615723,0.23641400039196014,1.3399041891098022,-0.011503325775265694,-0.15418942272663116,0.009333901107311249
9.015544891357422,81.93160247802734,72.58744812011719,-9.670941352844238,0.23941288888454437,1.3429569005966187,-0.012805314734578133,-0.18898141384124756,0.008410404436290264
8.91633415222168,81.83951568603516,72.53302001953125,-9.635584831237793,0.27161023020744324,1.4378360509872437,-0.034036871045827866,-0.19503387808799744,0.010589326731860638
8.866324424743652,81.80061340332031,72.54217529296875,-9.614986419677734,0.23690035939216614,1.496332049369812,-0.06520526856184006,-0.14820212125778198,0.011045301333069801
8.8368501663208,81.75716400146484,72.5372543334961,-9.625829696655273,0.2365998923778534,1.4508126974105835,-0.07742831856012344,-0.10700897872447968,0.013352747075259686
8.77237606048584,81.6739730834961,72.47000122070312,-9.653409957885742,0.2176290899515152,1.3967723846435547,-0.03702604025602341,-0.10971242189407349,0.009417722932994366
8.684560775756836,81.570556640625,72.3954849243164,-9.656967163085938,0.2306339293718338,1.3984448909759521,-0.04402436316013336,-0.13646037876605988,0.010970046743750572
8.633495330810547,81.50045013427734,72.34011840820312,-9.642732620239258,0.22611695528030396,1.4513591527938843,-0.023498015478253365,-0.14794915914535522,0.008410029113292694
8.65826416015625,81.5124740600586,72.36376190185547,-9.582374572753906,0.23052215576171875,1.554329514503479,-0.02066008932888508,-0.10500216484069824,0.00839028600603342
8.728778839111328,81.58833312988281,72.42511749267578,-9.575043678283691,0.22690874338150024,1.5831609964370728,-0.006640702951699495,-0.014618412591516972,0.004208274185657501
8.77645206451416,81.63761901855469,72.4722900390625,-9.632705688476562,0.2297431230545044,1.4686627388000488,-0.004819035530090332,0.04963484779000282,0.001324154669418931
8.778091430664062,81.62794494628906,72.47266387939453,-9.668514251708984,0.22625356912612915,1.4122323989868164,-0.005763396620750427,0.029278362169861794,0.002941675717011094
8.779253959655762,81.624755859375,72.47461700439453,-9.659486770629883,0.2356688529253006,1.4187302589416504,-0.00587143050506711,0.010544247925281525,0.00281687849201262
8.816243171691895,81.66555786132812,72.51212310791016,-9.623090744018555,0.23439820110797882,1.4826048612594604,-0.006566941738128662,0.019993074238300323,0.002653338247910142
8.889287948608398,81.75164031982422,72.58271026611328,-9.60857105255127,0.23639503121376038,1.5030043125152588,-0.00547766825184226,0.06916430592536926,-4.023313886136748e-05
8.961270332336426,81.83016967773438,72.64553833007812,-9.636124610900879,0.23656298220157623,1.443992257118225,-0.0031359498389065266,0.10859986394643784,-0.0012803826248273253
9.009769439697266,81.88511657714844,72.68433380126953,-9.663965225219727,0.22194397449493408,1.3914111852645874,0.00676568690687418,0.1051316186785698,-0.0029504303820431232
9.067659378051758,81.94548034667969,72.74053192138672,-9.650341987609863,0.23849862813949585,1.4232285022735596,0.0007746742339804769,0.10633935034275055,-0.0023737552110105753
9.12948989868164,82.00296783447266,72.78855895996094,-9.651443481445312,0.23077313601970673,1.3934860229492188,0.003106706542894244,0.11151863634586334,-0.0020369894336909056
9.172187805175781,82.03853607177734,72.80976104736328,-9.665188789367676,0.22647404670715332,1.3652828931808472,0.015106609091162682,0.10242816060781479,-0.003126263851299882
9.187470436096191,82.0439224243164,72.80532836914062,-9.674593925476074,0.2295198142528534,1.3529820442199707,0.019947998225688934,0.07797760516405106,-0.0024255365133285522
9.18006706237793,82.02203369140625,72.78803253173828,-9.683891296386719,0.2265198826789856,1.3342829942703247,0.020499341189861298,0.040051527321338654,-0.001491233822889626
9.171844482421875,81.99420928955078,72.77638244628906,-9.665916442871094,0.2375684231519699,1.3643566370010376,0.010147877037525177,0.006036647129803896,0.002413056790828705
9.16294002532959,81.98051452636719,72.75745391845703,-9.64829158782959,0.23268961906433105,1.3899916410446167,0.01009572297334671,-0.007835404016077518,0.0023661183658987284
9.163382530212402,81.97953033447266,72.7503662109375,-9.637643814086914,0.22395963966846466,1.3982871770858765,0.009411015547811985,-0.0040933480486273766,0.0009348616586066782
9.17154598236084,81.97982788085938,72.75389862060547,-9.639154434204102,0.24054041504859924,1.425909161567688,0.006339140236377716,0.0009017065167427063,0.0015350059838965535
9.163662910461426,81.96879577636719,72.74341583251953,-9.662373542785645,0.22416558861732483,1.379699945449829,0.004679523874074221,0.0020364299416542053,0.0015983361518010497
9.146871566772461,81.95401763916016,72.72640991210938,-9.641448974609375,0.24050362408161163,1.4271914958953857,-0.00039823356200940907,-0.014024227857589722,0.0019019469618797302
9.14496898651123,81.95236206054688,72.72708892822266,-9.644166946411133,0.2298869639635086,1.3987187147140503,-0.0030003495048731565,-0.003703311551362276,0.0014012682950124145
9.1737642288208,81.97972869873047,72.7576904296875,-9.614984512329102,0.23571285605430603,1.441192865371704,-0.007225201930850744,-0.006707386579364538,0.0023880978114902973
9.230473518371582,82.03903198242188,72.81198120117188,-9.594593048095703,0.2280181348323822,1.5037009716033936,-0.006022304762154818,0.05778651684522629,0.000392459420254454
9.186151504516602,81.98555755615234,72.76399993896484,-9.710640907287598,0.22331857681274414,1.2717381715774536,-0.00232830666936934,0.046320073306560516,-0.00014640390872955322
9.061139106750488,81.83759307861328,72.64317321777344,-9.727006912231445,0.2274201512336731,1.2628173828125,-0.0063069164752960205,-0.0760536715388298,0.005642883479595184
8.984121322631836,81.74993133544922,72.56832885742188,-9.644195556640625,0.23745140433311462,1.4336931705474854,-0.010516123846173286,-0.13098794221878052,0.007101336028426886
8.98625373840332,81.7454605102539,72.56865692138672,-9.611793518066406,0.22413714230060577,1.485283613204956,-0.008888540789484978,-0.0926334336400032,0.005770288407802582
9.033145904541016,81.79264068603516,72.61477661132812,-9.601075172424316,0.23852500319480896,1.5171152353286743,-0.00653490424156189,-0.03979765251278877,0.00437442259863019
9.12786865234375,81.89913940429688,72.704345703125,-9.574949264526367,0.2368037849664688,1.5604149103164673,-0.006423518992960453,0.03675427660346031,0.001302175223827362
9.220647811889648,82.00090026855469,72.78645324707031,-9.6301851272583,0.23796972632408142,1.447687029838562,0.002352707553654909,0.11689460277557373,-0.0026639557909220457
9.226177215576172,82.0054702758789,72.78456115722656,-9.668033599853516,0.23905402421951294,1.3549258708953857,0.0039694830775260925,0.10503476113080978,-0.002987310755997896
9.171080589294434,81.93793487548828,72.72967529296875,-9.724611282348633,0.24375000596046448,1.2553702592849731,0.005140714813023806,0.026033632457256317,3.818422555923462e-05
9.171951293945312,81.93793487548828,72.73677062988281,-9.649574279785156,0.23926855623722076,1.3960213661193848,-0.008556992746889591,-0.033173710107803345,0.003991090226918459
9.28371524810791,82.06056213378906,72.84619140625,-9.557596206665039,0.24448665976524353,1.572488784790039,-0.005514174699783325,0.06594675779342651,-0.0005215406999923289
9.318621635437012,82.09465789794922,72.87944793701172,-9.675975799560547,0.2290089875459671,1.3296343088150024,-0.0026583673898130655,0.1229284256696701,-0.0022616239730268717
9.192099571228027,81.95560455322266,72.75631713867188,-9.764798164367676,0.2378789484500885,1.161357045173645,-0.006636977661401033,0.009295158088207245,0.0016117468476295471
9.051706314086914,81.79043579101562,72.61912536621094,-9.727487564086914,0.22975997626781464,1.250532627105713,-0.011337178759276867,-0.12438857555389404,0.007290953304618597
9.000455856323242,81.72460174560547,72.5691146850586,-9.641498565673828,0.23389823734760284,1.426932692527771,-0.01141280122101307,-0.15015417337417603,0.008332173340022564
9.0300874710083,81.75621795654297,72.5972900390625,-9.59589672088623,0.23686322569847107,1.5117549896240234,-0.008875131607055664,-0.08352846652269363,0.0059941792860627174
9.058436393737793,81.79244232177734,72.62609100341797,-9.60954475402832,0.2316528707742691,1.4736216068267822,-0.007149951066821814,-0.004895031452178955,0.0023307278752326965
9.018350601196289,81.75040435791016,72.5875015258789,-9.68949031829834,0.2268376350402832,1.326520323753357,-0.007952377200126648,-0.008745119906961918,0.0021981075406074524
8.944129943847656,81.66256713867188,72.51448822021484,-9.68768310546875,0.22500239312648773,1.34952974319458,-0.009734186343848705,-0.06415993720293045,0.0037608672864735126
8.884528160095215,81.58450317382812,72.45552062988281,-9.680856704711914,0.21789954602718353,1.3711100816726685,-0.008338318206369877,-0.0927221029996872,0.005700625944882631
8.85913372039795,81.55184936523438,72.43246459960938,-9.626368522644043,0.22450920939445496,1.471909523010254,-0.010648743249475956,-0.10243169963359833,0.00598076730966568
8.905845642089844,81.6023941040039,72.4773178100586,-9.596222877502441,0.2298494279384613,1.521254062652588,-0.008571893908083439,-0.041412562131881714,0.0041728843934834
8.961869239807129,81.66490173339844,72.53241729736328,-9.60580062866211,0.22621294856071472,1.5194472074508667,-0.006243587005883455,0.03384631499648094,0.0013133508618921041
8.958867073059082,81.6558609008789,72.530029296875,-9.66907024383545,0.2287067472934723,1.3874452114105225,-0.00583864888176322,0.040907226502895355,0.001185573753900826
8.905502319335938,81.59063720703125,72.47704315185547,-9.69102668762207,0.22565531730651855,1.369467854499817,-0.007573514711111784,-0.0167112797498703,0.003448687493801117
8.878609657287598,81.55599212646484,72.44989013671875,-9.644318580627441,0.22493135929107666,1.4404586553573608,-0.008004903793334961,-0.05109943822026253,0.0039266422390937805
8.915064811706543,81.59124755859375,72.48738098144531,-9.605423927307129,0.23116441071033478,1.5259443521499634,-0.007150322664529085,-0.020241739228367805,0.003676303196698427
8.968158721923828,81.65030670166016,72.54048919677734,-9.60036849975586,0.23404516279697418,1.5331329107284546,-0.008238478563725948,0.037391297519207,0.0017059965757653117
8.962718963623047,81.64217376708984,72.53280639648438,-9.66907787322998,0.22991742193698883,1.4080784320831299,-0.0051870946772396564,0.052253350615501404,0.0009877607226371765
8.873899459838867,81.54112243652344,72.44621276855469,-9.697039604187012,0.23293159902095795,1.3357354402542114,-0.006797910667955875,-0.023145603016018867,0.0027449801564216614
8.802334785461426,81.46080017089844,72.37902069091797,-9.658608436584473,0.2365163266658783,1.4173978567123413,-0.010059029795229435,-0.09631887823343277,0.00528823584318161
8.830118179321289,81.49508666992188,72.40953826904297,-9.571742057800293,0.24877530336380005,1.600597620010376,-0.012744592502713203,-0.06210842356085777,0.0035325069911777973
8.90189266204834,81.56645965576172,72.47876739501953,-9.590643882751465,0.234629824757576,1.5574589967727661,-0.008093565702438354,0.03200304135680199,0.001958944136276841
8.901865005493164,81.56082916259766,72.4785385131836,-9.656338691711426,0.2422722727060318,1.4271403551101685,-0.006360561586916447,0.03772694990038872,0.0016534703318029642
8.850143432617188,81.4985580444336,72.42798614501953,-9.67248249053955,0.2337678074836731,1.408463478088379,-0.007905438542366028,-0.009480863809585571,0.003352575236931443
8.78010082244873,81.41624450683594,72.360595703125,-9.66294002532959,0.245218425989151,1.4103589057922363,-0.009529664181172848,-0.05619562417268753,0.004029832314699888
8.713738441467285,81.32980346679688,72.29859924316406,-9.652725219726562,0.2403186857700348,1.4471980333328247,-0.01107342541217804,-0.09212794154882431,0.0057166446931660175
8.665074348449707,81.25901794433594,72.25885772705078,-9.638086318969727,0.24559175968170166,1.484163522720337,-0.014236570335924625,-0.10991433262825012,0.006850623991340399
8.645257949829102,81.22210693359375,72.2444076538086,-9.61843490600586,0.22632025182247162,1.5252844095230103,-0.019228830933570862,-0.100008025765419,0.00863093975931406
8.638731002807617,81.2203598022461,72.23522186279297,-9.602648735046387,0.23426273465156555,1.5525803565979004,-0.012419001199305058,-0.06832890212535858,0.005899557378143072
8.644617080688477,81.24274444580078,72.2400894165039,-9.606127738952637,0.2375888228416443,1.544411063194275,-0.008773432113230228,-0.02908073365688324,0.0023266300559043884
8.712244033813477,81.32767486572266,72.3108139038086,-9.596750259399414,0.2416425347328186,1.5493298768997192,-0.009276346303522587,0.005299784243106842,0.000745616911444813
8.925684928894043,81.57014465332031,72.52151489257812,-9.50390338897705,0.2324487715959549,1.7446048259735107,-0.00964477751404047,0.12090560048818588,-0.0007681548595428467
9.180368423461914,81.85348510742188,72.7610092163086,-9.552238464355469,0.23973491787910461,1.6374034881591797,0.0022998088970780373,0.31690743565559387,-0.007648024708032608
9.229132652282715,81.90667724609375,72.80052947998047,-9.73254680633545,0.22664141654968262,1.250797152519226,0.011183884926140308,0.3078553080558777,-0.009655211120843887
9.101640701293945,81.7587661743164,72.67914581298828,-9.79132080078125,0.24795855581760406,1.1305559873580933,0.000893883581738919,0.10829289257526398,-0.00159293448086828
8.990047454833984,81.62954711914062,72.57312774658203,-9.717873573303223,0.23180928826332092,1.2901015281677246,-0.009457766078412533,-0.054307278245687485,0.005003250204026699
9.000131607055664,81.64370727539062,72.5821762084961,-9.60566520690918,0.2442915439605713,1.511877179145813,-0.008233634755015373,-0.05842074379324913,0.004105455242097378
9.117005348205566,81.76985168457031,72.69700622558594,-9.57188606262207,0.23055176436901093,1.5496915578842163,-0.006325170863419771,0.034396156668663025,0.001035444438457489
9.267007827758789,81.92427825927734,72.8441390991211,-9.58878231048584,0.2329864501953125,1.5149470567703247,-0.003721565706655383,0.1348724663257599,-0.0012967739021405578
9.350242614746094,82.01224517822266,72.91935729980469,-9.647193908691406,0.22971336543560028,1.395273208618164,-0.0010330229997634888,0.17712098360061646,-0.0032167884055525064
9.305954933166504,81.96208190917969,72.8700942993164,-9.739350318908691,0.2271788865327835,1.2277758121490479,0.005665609147399664,0.11820068955421448,-0.0031478710006922483
9.204322814941406,81.84149169921875,72.77580261230469,-9.753972053527832,0.2261902391910553,1.2192332744598389,-0.006007775664329529,-0.02371743507683277,0.004014932084828615
9.167649269104004,81.80015563964844,72.74100494384766,-9.636210441589355,0.224613219499588,1.4214800596237183,-0.009267032146453857,-0.0639110878109932,0.0054368749260902405
9.1713228225708,81.80892944335938,72.74353790283203,-9.621705055236816,0.2239704430103302,1.4326372146606445,-0.0077310954220592976,-0.026868285611271858,0.00331830233335495
9.19438362121582,81.83944702148438,72.76631164550781,-9.647902488708496,0.22375981509685516,1.4141536951065063,-0.007126108277589083,-0.016368180513381958,0.002135522896423936
9.268830299377441,81.92792510986328,72.83941650390625,-9.584636688232422,0.2223142683506012,1.5379750728607178,-0.005982444155961275,0.048808567225933075,-0.00014901161193847656
9.296418190002441,81.96388244628906,72.86595153808594,-9.673980712890625,0.21889548003673553,1.3645315170288086,-0.004394352436065674,0.09570438414812088,-0.0029787421226501465
9.237506866455078,81.8922348022461,72.80865478515625,-9.709419250488281,0.20843124389648438,1.2786041498184204,-0.007100403308868408,0.02162698656320572,0.000994838890619576
9.189227104187012,81.83131408691406,72.76199340820312,-9.66922664642334,0.23021073639392853,1.3395615816116333,-0.008490310050547123,-0.04616045206785202,0.004130043555051088
9.210798263549805,81.85222625732422,72.78401184082031,-9.619818687438965,0.22678081691265106,1.47232985496521,-0.008849429897964,-0.03355629742145538,0.004234351217746735
9.265620231628418,81.9172592163086,72.8372802734375,-9.608030319213867,0.22689861059188843,1.4854130744934082,-0.006843730807304382,0.029818156734108925,0.0011997297406196594
9.271286964416504,81.92501068115234,72.84294128417969,-9.658759117126465,0.23194174468517303,1.3799985647201538,-0.005571544170379639,0.05633179098367691,-0.0004135072522331029
9.184210777282715,81.8279800415039,72.75695037841797,-9.714128494262695,0.22241179645061493,1.267006754875183,-0.006765127647668123,-0.007358193397521973,0.0023858624044805765
9.107216835021973,81.74607849121094,72.68112182617188,-9.67618465423584,0.2325720340013504,1.3234894275665283,-0.009845942258834839,-0.10149814933538437,0.005352311301976442
9.161236763000488,81.80403900146484,72.73278045654297,-9.562734603881836,0.2405184507369995,1.569692611694336,-0.007594376802444458,-0.044541437178850174,0.0029461458325386047
9.244115829467773,81.88557434082031,72.81317138671875,-9.608360290527344,0.22600072622299194,1.4817891120910645,-0.003991276491433382,0.05046893283724785,0.0008417293429374695
9.25471305847168,81.90296936035156,72.82096862792969,-9.673213005065918,0.2282618135213852,1.353456974029541,-0.004960969090461731,0.054132383316755295,0.000817514955997467
9.188713073730469,81.86759948730469,72.7286148071289,-9.6535062789917,0.23574377596378326,1.3798915147781372,-0.0004183501296211034,0.03197137266397476,-0.0012218952178955078
9.079093933105469,81.78661346435547,72.58334350585938,-9.703178405761719,0.24362045526504517,1.2844842672348022,0.03333595022559166,-0.03675595670938492,-0.008845704607665539
9.013981819152832,81.71660614013672,72.5119857788086,-9.64613151550293,0.24106532335281372,1.4006361961364746,0.018514132127165794,-0.07125698775053024,-0.003666803240776062
8.949604034423828,81.64264678955078,72.44336700439453,-9.669438362121582,0.21559911966323853,1.371104121208191,0.017089957371354103,-0.0837232917547226,-0.0017669053049758077
8.87431812286377,81.54383087158203,72.37777709960938,-9.679095268249512,0.24640662968158722,1.3533226251602173,0.0012738632503896952,-0.1122780367732048,0.0028504065703600645
8.825858116149902,81.47464752197266,72.33727264404297,-9.648754119873047,0.22143325209617615,1.4232372045516968,-0.00947155337780714,-0.1392301321029663,0.0073404996655881405
8.816009521484375,81.45822143554688,72.3310317993164,-9.608582496643066,0.24030126631259918,1.5120961666107178,-0.011191518977284431,-0.088896244764328,0.005655549932271242
8.775168418884277,81.40184783935547,72.29295349121094,-9.668476104736328,0.227918341755867,1.4080986976623535,-0.011359155178070068,-0.07356853038072586,0.006233341991901398
8.713419914245605,81.32767486572266,72.23388671875,-9.652568817138672,0.23557940125465393,1.4217370748519897,-0.01276247389614582,-0.10903479903936386,0.006606617476791143
8.669140815734863,81.2657241821289,72.18978118896484,-9.612796783447266,0.2314780205488205,1.4845550060272217,-0.010905414819717407,-0.08939246088266373,0.005744583904743195
8.566285133361816,81.12564086914062,72.08748626708984,-9.672218322753906,0.22806420922279358,1.4043376445770264,-0.010045990347862244,-0.12323334813117981,0.007542036939412355
8.37055492401123,80.86791229248047,71.90167236328125,-9.752731323242188,0.22387251257896423,1.29098379611969,-0.011080878786742687,-0.20684677362442017,0.0096784932538867
8.14200210571289,80.57321166992188,71.7181625366211,-9.68873119354248,0.2475111335515976,1.418725848197937,-0.027208415791392326,-0.3637564778327942,0.01577158272266388
8.067749977111816,80.48995971679688,71.68572235107422,-9.5650634765625,0.25023531913757324,1.6962554454803467,-0.07335250824689865,-0.3545647859573364,0.018450072035193443
8.212637901306152,80.67232513427734,71.8068618774414,-9.4310302734375,0.1968468576669693,1.9097986221313477,-0.03451109677553177,-0.1491725742816925,0.010084922425448895
8.458357810974121,80.98053741455078,72.02239227294922,-9.441787719726562,0.2318546622991562,1.901304006576538,-0.002012774581089616,0.11963601410388947,-0.000492483435664326
8.645987510681152,81.19163513183594,72.17646789550781,-9.583664894104004,0.19265271723270416,1.613197684288025,0.018418027088046074,0.27741438150405884,-0.006313995458185673
8.650071144104004,81.18695831298828,72.17118072509766,-9.723834991455078,0.2640906274318695,1.368003487586975,0.034125715494155884,0.218067929148674,-0.005816296674311161
8.53956127166748,81.06400299072266,72.08351135253906,-9.734496116638184,0.23096676170825958,1.331729769706726,-0.005773454904556274,0.05627591162919998,0.001024268683977425
8.481417655944824,80.98812103271484,72.0268325805664,-9.65533447265625,0.23833324015140533,1.4734209775924683,-0.009057298302650452,-0.04872904345393181,0.003829412627965212
8.533801078796387,81.05543518066406,72.07778930664062,-9.57088851928711,0.24685044586658478,1.641642451286316,-0.007456914056092501,-0.023218244314193726,0.003434903919696808
8.687744140625,81.25758361816406,72.22833251953125,-9.51166820526123,0.2444668412208557,1.750057339668274,-0.004939735401421785,0.09771044552326202,-0.001361966016702354
8.87949275970459,81.48851013183594,72.41231536865234,-9.568718910217285,0.24225156009197235,1.6334848403930664,-0.000895932549610734,0.23919034004211426,-0.006134809460490942
8.988382339477539,81.614990234375,72.5057373046875,-9.637470245361328,0.2271701544523239,1.4695563316345215,0.006157348398119211,0.2695865035057068,-0.007267672102898359
8.994324684143066,81.62511444091797,72.50433349609375,-9.728535652160645,0.24054746329784393,1.3080044984817505,0.015289152972400188,0.1965174674987793,-0.007697940804064274
8.988032341003418,81.61421966552734,72.50796508789062,-9.67955493927002,0.23975162208080292,1.3823215961456299,-0.0034693628549575806,0.09577963501214981,-0.0008795410394668579
9.018145561218262,81.65470886230469,72.53803253173828,-9.63547420501709,0.24121519923210144,1.4678672552108765,-0.005553291644901037,0.0870404914021492,-0.000995025271549821
9.04482650756836,81.6854248046875,72.56383514404297,-9.64188003540039,0.23925013840198517,1.41996169090271,-0.004651397466659546,0.0848693773150444,-0.0014450401067733765
9.092703819274902,81.7228012084961,72.61334228515625,-9.649694442749023,0.22757931053638458,1.4136433601379395,-0.00604502996429801,0.06117244064807892,0.00042300677159801126
9.21931266784668,81.83893585205078,72.74019622802734,-9.596457481384277,0.2270144671201706,1.5167319774627686,-0.006716326344758272,0.09529533982276917,0.001916103414259851
9.39792251586914,82.02843475341797,72.9170150756836,-9.595097541809082,0.23340366780757904,1.5032216310501099,-0.005033240187913179,0.17590059340000153,-0.0004719942808151245
9.578226089477539,82.23564910888672,73.09346008300781,-9.59659481048584,0.2466806173324585,1.4769688844680786,-0.0021267689298838377,0.2580335736274719,-0.006556512322276831
9.688712120056152,82.35311889648438,73.20172882080078,-9.695425987243652,0.21812666952610016,1.2907254695892334,-0.00047422965872101486,0.2868092656135559,-0.010045994073152542
9.696468353271484,82.35260772705078,73.20952606201172,-9.739609718322754,0.22344282269477844,1.164346694946289,-0.0027328734286129475,0.1827629953622818,-0.003986434079706669
9.707569122314453,82.36888885498047,73.22113800048828,-9.674077987670898,0.22908258438110352,1.2868108749389648,-0.0050146132707595825,0.10850074887275696,-0.00218451046384871
9.746337890625,82.40425872802734,73.25931549072266,-9.671293258666992,0.2210589051246643,1.2950427532196045,-0.005003437865525484,0.10778290033340454,-0.0020682814065366983
9.772448539733887,82.42304229736328,73.28629302978516,-9.706804275512695,0.2222001999616623,1.2278387546539307,-0.005872920621186495,0.0680411159992218,0.00013168901205062866
9.9291353225708,82.57117462158203,73.43994140625,-9.58523178100586,0.23221850395202637,1.433121681213379,-0.006900356151163578,0.07803124934434891,0.00027585774660110474
10.205618858337402,82.82783508300781,73.70244598388672,-9.561227798461914,0.22143635153770447,1.4740709066390991,0.0006364659639075398,0.2555003762245178,-0.0077772899530828
10.353289604187012,82.95338439941406,73.83680725097656,-9.712051391601562,0.2042967826128006,1.1659821271896362,0.014725146815180779,0.2788974940776825,-0.01116134598851204
10.447997093200684,83.0128173828125,73.93657684326172,-9.720613479614258,0.24675685167312622,1.1041910648345947,0.004401617683470249,0.20235206186771393,-0.005353244487196207
10.673226356506348,83.1675796508789,74.17537689208984,-9.640256881713867,0.22053262591362,1.265325903892517,-0.0049427165649831295,0.18757304549217224,-0.0015582892810925841
11.179099082946777,83.48130798339844,74.72830963134766,-9.593866348266602,0.14858004450798035,1.3683154582977295,-0.0193033404648304,0.2945846915245056,-0.0019036239245906472
11.972126007080078,83.94763946533203,75.54837799072266,-9.56781005859375,0.23134967684745789,1.4124701023101807,-0.06776943057775497,0.45686495304107666,0.008668945170938969
12.979279518127441,84.54177856445312,76.4847183227539,-9.519918441772461,0.24997280538082123,1.3507905006408691,0.0010279958369210362,0.6714805364608765,-0.017784196883440018
14.191818237304688,85.12516784667969,77.60604095458984,-9.618496894836426,0.19153647124767303,1.1752952337265015,0.058023612946271896,0.8384101390838623,-0.03669608011841774
15.507816314697266,85.62771606445312,78.84828186035156,-9.713915824890137,0.1997978389263153,0.9445353150367737,0.10103298723697662,0.8694922924041748,-0.04749872162938118
17.453493118286133,86.15605163574219,80.74510955810547,-9.690362930297852,0.238144651055336,0.7479680776596069,0.0868835523724556,0.867142915725708,-0.04394068941473961
20.091304779052734,86.71163940429688,83.28453826904297,-9.681148529052734,0.16457965970039368,0.8348186612129211,0.09798576682806015,0.9587408304214478,-0.03516986221075058
22.52495574951172,87.10240936279297,85.68183898925781,-9.802016258239746,0.09687754511833191,0.731408953666687,0.15960560739040375,0.9202671051025391,-0.057581644505262375
25.550302505493164,87.384765625,88.90696716308594,-9.819554328918457,0.26079779863357544,0.17384521663188934,-0.0021554583217948675,0.7612103819847107,-0.014121118932962418
29.78438949584961,87.72101593017578,93.28010559082031,-9.742035865783691,0.29200002551078796,0.4375610053539276,-0.19016942381858826,0.7243837714195251,0.007847899571061134
34.41421127319336,87.97929382324219,97.8089828491211,-9.734626770019531,0.08412886410951614,0.6974241733551025,-0.05553041771054268,0.7131757736206055,-0.001182782230898738
33.482421875,87.95915222167969,96.513427734375,-9.976207733154297,0.10763479024171829,1.3398761749267578,0.03862069919705391,0.5551484823226929,0.021308133378624916
29.521984100341797,87.76375579833984,91.70984649658203,-9.940496444702148,-0.024008462205529213,1.6796756982803345,0.5299074053764343,0.08931861072778702,-0.0683092325925827
31.91453742980957,87.78539276123047,93.17730712890625,-9.621472358703613,0.13841725885868073,1.3330227136611938,0.96762615442276,0.01891765370965004,-0.003841534024104476
34.74821853637695,87.97068786621094,95.39329528808594,-9.661377906799316,0.19404615461826324,0.3219398856163025,1.168533444404602,0.15892571210861206,0.002043892629444599
34.205711364746094,88.11363220214844,94.76213073730469,-9.582589149475098,0.1779693216085434,0.24276527762413025,0.8714301586151123,0.21559391915798187,-0.0597069188952446
31.856075286865234,88.12496948242188,92.66162872314453,-9.954536437988281,0.4733150899410248,0.6518009901046753,0.4448453485965729,0.1348416656255722,-0.10599876940250397
36.55644607543945,88.55667114257812,96.85014343261719,-9.688992500305176,0.06621990352869034,0.6300789713859558,-0.01785382814705372,0.03945622593164444,-0.0630699172616005
86.23741912841797,89.37037658691406,144.9550018310547,-9.694762229919434,-0.015076552517712116,0.5939611196517944,1.3506659269332886,0.8438732624053955,-0.2871279716491699
151.21466064453125,88.80253601074219,-150.92662048339844,-10.057147979736328,0.1369837373495102,0.7624771595001221,1.3878206014633179,1.117095947265625,-0.2077808827161789
167.9387664794922,87.4448013305664,-134.96424865722656,-9.713347434997559,0.13417166471481323,-0.03893565014004707,1.4670490026474,1.620435118675232,-0.14930778741836548
172.7999267578125,86.27843475341797,-129.63278198242188,-9.738824844360352,-0.08706426620483398,-2.496890068054199,1.2583065032958984,2.0176141262054443,-0.07860547304153442
176.15060424804688,85.85669708251953,-124.27910614013672,-9.4891939163208,0.7313175201416016,-2.9403929710388184,-0.6023515462875366,1.6982876062393188,-0.21612976491451263
178.00677490234375,85.53787994384766,-121.13310241699219,-9.837778091430664,0.21583499014377594,-0.5449106097221375,-1.6273245811462402,1.124510407447815,-0.36443817615509033
177.741943359375,84.85289001464844,-121.39930725097656,-9.636686325073242,-0.01899411901831627,-1.1923640966415405,-1.2255637645721436,1.1563796997070312,-0.19244371354579926
178.24073791503906,84.26786804199219,-121.31012725830078,-9.74443531036377,0.1951005607843399,-1.0238398313522339,-0.40344300866127014,1.168466567993164,-0.0967896357178688
178.67662048339844,83.78376007080078,-121.04449462890625,-9.70708179473877,0.09300710260868073,-1.0559360980987549,-0.1113937571644783,1.0121760368347168,-0.09145255386829376
178.75765991210938,83.3028564453125,-120.99846649169922,-9.673151016235352,0.03334660828113556,-1.3183103799819946,0.0007597762742079794,1.0063445568084717,-0.03471427038311958
178.89808654785156,83.04230499267578,-120.72386932373047,-9.579263687133789,0.03291313722729683,-1.043519139289856,-0.05629824474453926,0.8493139147758484,-0.04738061875104904
178.61627197265625,82.84059143066406,-120.77894592285156,-9.712169647216797,0.08544276654720306,-0.8965667486190796,-0.1811268925666809,0.616923987865448,-0.032115787267684937
178.41636657714844,82.53802490234375,-120.7530746459961,-9.762537002563477,-0.007106726989150047,-1.0447334051132202,-0.2783970236778259,0.5885047316551208,0.008370929397642612
178.6790771484375,82.2214584350586,-120.33963012695312,-9.680055618286133,0.06976070255041122,-1.235754132270813,-0.3029690384864807,0.5610180497169495,-0.029513292014598846
178.86244201660156,81.92423248291016,-120.12425994873047,-9.673247337341309,-0.0877906009554863,-1.1755656003952026,-0.23950597643852234,0.5863445997238159,-0.04156201705336571
178.7543487548828,81.71648406982422,-120.22120666503906,-9.69060230255127,-0.12645991146564484,-1.198654055595398,-0.12258046120405197,0.49891477823257446,-0.027607040479779243
178.417236328125,81.5389175415039,-120.45109558105469,-9.599543571472168,-0.03724754601716995,-1.464199423789978,-0.14488674700260162,0.453754723072052,0.018638573586940765
178.20907592773438,81.46382904052734,-120.61956787109375,-9.685701370239258,-0.08590847253799438,-1.4040833711624146,-0.17576640844345093,0.35776206851005554,0.02202747017145157
177.95909118652344,81.39814758300781,-120.92272186279297,-9.615205764770508,-0.01801745593547821,-1.3678168058395386,-0.04850590229034424,0.23006266355514526,0.04634616896510124
177.7659912109375,81.22737121582031,-121.07330322265625,-9.660530090332031,0.05038819462060928,-1.3573347330093384,-0.04691668599843979,0.2441449612379074,0.05988870561122894
177.76437377929688,81.035888671875,-121.00326538085938,-9.695560455322266,0.09058943390846252,-1.3782445192337036,-0.08578228950500488,0.286589115858078,0.039215218275785446
177.84193420410156,80.87017059326172,-120.87718200683594,-9.670681953430176,0.06280577182769775,-1.5296670198440552,-0.09171222150325775,0.29663440585136414,0.017062395811080933
177.9567413330078,80.7313003540039,-120.70266723632812,-9.67337417602539,0.08180844783782959,-1.5016655921936035,-0.0831306129693985,0.284485399723053,0.0007180499960668385
178.09117126464844,80.6005859375,-120.46944427490234,-9.67902946472168,0.07623018324375153,-1.544082522392273,-0.11585021764039993,0.2604300379753113,-0.021448737010359764
178.21287536621094,80.39925384521484,-120.27001953125,-9.68496322631836,0.07013323158025742,-1.5100008249282837,-0.14124107360839844,0.258668452501297,-0.03368557617068291
178.21656799316406,80.1283950805664,-120.22855377197266,-9.617340087890625,0.050929635763168335,-1.4712218046188354,-0.1125783622264862,0.35904285311698914,-0.031726084649562836
178.0983428955078,79.8926773071289,-120.32852172851562,-9.619499206542969,-0.04132680594921112,-1.7024781703948975,-0.10040147602558136,0.3768746256828308,0.002155268331989646
178.08419799804688,79.69458770751953,-120.284423828125,-9.627511978149414,0.0004343875916674733,-1.602482795715332,-0.05348477140069008,0.39659184217453003,0.011499048210680485
178.1273651123047,79.54405975341797,-120.11491394042969,-9.544179916381836,0.09092714637517929,-1.6898363828659058,-0.15415704250335693,0.33075806498527527,-0.00973567832261324
178.28794860839844,79.39657592773438,-119.90113067626953,-9.602272033691406,0.15716083347797394,-1.8296737670898438,-0.12221081554889679,0.33438166975975037,-0.020456694066524506
178.55227661132812,79.33443450927734,-119.52969360351562,-9.607810974121094,0.13096773624420166,-1.8561601638793945,-0.125467449426651,0.2599886655807495,-0.04753211513161659
178.7158966064453,79.2641372680664,-119.17381286621094,-9.60044002532959,0.21102535724639893,-1.750482439994812,-0.17966818809509277,0.19023816287517548,-0.08726420998573303
178.6793975830078,79.09290313720703,-119.03520965576172,-9.619302749633789,0.32852405309677124,-1.7258412837982178,-0.2776557207107544,0.19952721893787384,-0.07016178220510483
178.9806671142578,78.83760833740234,-118.73859405517578,-9.604915618896484,0.23317840695381165,-1.8481642007827759,-0.2102530598640442,0.29486992955207825,-0.053488679230213165
179.76898193359375,78.58728790283203,-118.02996063232422,-9.781965255737305,0.0011104585137218237,-1.8483295440673828,-0.056346163153648376,0.3563288450241089,-0.10554834455251694
-179.56446838378906,78.36353302001953,-117.4416732788086,-9.716621398925781,-0.1810976266860962,-1.8961962461471558,0.0020166875328868628,0.38186806440353394,-0.18455810844898224
-179.08355712890625,78.2315444946289,-117.09750366210938,-9.812825202941895,-0.13722461462020874,-1.9924964904785156,0.09168487042188644,0.3687710165977478,-0.12530803680419922
-178.2438201904297,78.12442779541016,-116.39350128173828,-9.62941837310791,-0.23061765730381012,-1.9767152070999146,0.15485240519046783,0.24573683738708496,-0.1824703961610794
-177.49644470214844,77.90805053710938,-115.74815368652344,-9.588101387023926,-0.1098809540271759,-2.0760607719421387,0.19206775724887848,0.3081687390804291,-0.19753777980804443
-177.17515563964844,77.76251220703125,-115.45832824707031,-9.545404434204102,0.004689189605414867,-2.0901525020599365,0.15864214301109314,0.31035134196281433,-0.23058295249938965
-177.6495361328125,77.72640991210938,-115.93386840820312,-9.663992881774902,0.09228501468896866,-2.093951940536499,0.09258150309324265,0.2510051131248474,-0.08298234641551971
-178.07106018066406,77.7541732788086,-116.32899475097656,-9.487852096557617,0.057830601930618286,-2.1291158199310303,0.04287790507078171,0.13418368995189667,0.02776738628745079
-178.2985076904297,77.77165985107422,-116.49269104003906,-9.594548225402832,0.05727526172995567,-2.106276035308838,-0.018595531582832336,0.07797162234783173,0.03942009434103966
-178.61546325683594,77.83457946777344,-116.67244720458984,-9.760680198669434,-0.058651238679885864,-2.1797800064086914,-0.06323717534542084,0.03143828734755516,0.051834627985954285
-178.95162963867188,77.8819580078125,-116.80319213867188,-9.699071884155273,-0.04014890640974045,-2.093008041381836,-0.20874111354351044,-0.057423122227191925,0.058826252818107605
-179.0790557861328,77.79425811767578,-116.87792205810547,-9.52806282043457,-0.18153943121433258,-2.084317445755005,-0.22502882778644562,0.010959619656205177,0.0449223555624485
-179.1814422607422,77.7103042602539,-117.00118255615234,-9.582128524780273,-0.11207728087902069,-2.036823034286499,-0.0854056179523468,0.0892428606748581,0.04051123186945915
-179.4347381591797,77.73788452148438,-117.14718627929688,-9.537965774536133,-0.08246564120054245,-2.075033187866211,-0.11520237475633621,0.07286873459815979,0.049438897520303726
-179.1345672607422,78.06912994384766,-116.49984741210938,-9.667423248291016,-0.1192348301410675,-2.029843330383301,-0.17019549012184143,-0.027124589309096336,0.0479547418653965
-178.79164123535156,78.3387222290039,-115.79232025146484,-9.232973098754883,-0.11031277477741241,-2.1436209678649902,-0.532755434513092,-0.4769776463508606,-0.22560714185237885
-179.4850311279297,78.10267639160156,-116.61444091796875,-9.405593872070312,-0.038413651287555695,-2.0178704261779785,-0.25417736172676086,-0.022665416821837425,0.03322829306125641
-179.9167938232422,78.12244415283203,-117.00975799560547,-9.400388717651367,-0.07025216519832611,-1.9823521375656128,-0.09149685502052307,-0.03282390907406807,0.028223726898431778
179.30242919921875,78.18478393554688,-117.55022430419922,-9.327773094177246,-0.05525236949324608,-2.0265815258026123,-0.24785707890987396,-0.019484765827655792,0.14960193634033203
179.1727752685547,78.29405975341797,-117.5754623413086,-9.256388664245605,0.06989159435033798,-1.8886096477508545,-0.29042568802833557,-0.11925889551639557,0.07360339909791946
178.95555114746094,78.3431167602539,-117.80323791503906,-9.294934272766113,0.0017137510003522038,-1.8598371744155884,-0.14709536731243134,-0.08753577619791031,0.08500871062278748
178.75328063964844,78.41765594482422,-117.94245147705078,-9.218996047973633,0.012849661521613598,-1.933960199356079,-0.139945387840271,-0.11434594541788101,0.07006135582923889
178.61903381347656,78.49671173095703,-118.06017303466797,-9.372191429138184,0.06963218003511429,-1.922814965248108,-0.1292933076620102,-0.10062159597873688,0.06349031627178192
178.60385131835938,78.63687896728516,-118.12569427490234,-9.577826499938965,-0.0019734303932636976,-1.9627041816711426,-0.05056038498878479,-0.14870987832546234,0.04666987806558609
178.54539489746094,78.77571868896484,-118.24282836914062,-9.679390907287598,0.03613012656569481,-1.9829928874969482,0.00012014062667731196,-0.1930270493030548,0.036032695323228836
178.54281616210938,78.87544250488281,-118.34172821044922,-9.748340606689453,0.07496413588523865,-1.9469361305236816,0.04073513299226761,-0.19522465765476227,0.04694295674562454
178.87574768066406,78.92684173583984,-118.16683959960938,-9.823124885559082,0.0606691874563694,-1.9535913467407227,0.11747127771377563,-0.168574258685112,0.020466936752200127
179.18951416015625,78.92523956298828,-117.97666931152344,-9.831137657165527,0.05749177187681198,-1.9845958948135376,0.19797444343566895,-0.11110308021306992,-0.031803928315639496
179.06785583496094,78.8886947631836,-118.08729553222656,-9.72564697265625,0.06312824040651321,-1.889206051826477,0.1345289945602417,-0.04967377334833145,-0.008881094865500927
178.96954345703125,78.81681823730469,-118.1392593383789,-9.531028747558594,0.02804269827902317,-1.8431782722473145,0.03352184221148491,0.005468539893627167,0.01741219498217106
179.19796752929688,78.71559143066406,-117.92378997802734,-9.44704818725586,0.061269935220479965,-1.8699235916137695,0.011437198147177696,0.07368605583906174,-0.00440329359844327
179.64370727539062,78.62162017822266,-117.54730987548828,-9.42270565032959,0.029537934809923172,-1.799369215965271,0.045098189264535904,0.11357200145721436,-0.046337779611349106
-179.92291259765625,78.54167938232422,-117.18502044677734,-9.345552444458008,0.04211713746190071,-1.8011692762374878,0.0929625853896141,0.12918321788311005,-0.08340850472450256
-179.56370544433594,78.47708129882812,-116.8757095336914,-9.291783332824707,0.03345155715942383,-1.823935866355896,0.08168203383684158,0.12798291444778442,-0.08573087304830551
-179.1872100830078,78.44145965576172,-116.5621109008789,-9.377628326416016,-0.013085173442959785,-1.8827792406082153,0.10233952850103378,0.11745676398277283,-0.10352806746959686
-178.98951721191406,78.44175720214844,-116.38992309570312,-9.457350730895996,-0.00026233354583382607,-1.9697943925857544,0.09313580393791199,0.07530098408460617,-0.09029322862625122
-178.86231994628906,78.45121002197266,-116.27326202392578,-9.53078556060791,0.025719527155160904,-1.9855519533157349,0.05275366082787514,0.04444364830851555,-0.07138103246688843
-178.686279296875,78.46561431884766,-116.15567016601562,-9.657989501953125,0.001739482511766255,-1.9406912326812744,0.05594324320554733,0.017434919252991676,-0.05727671831846237
-178.55599975585938,78.47855377197266,-116.09872436523438,-9.782928466796875,-0.06442368775606155,-2.0312180519104004,0.09616558998823166,0.00491756945848465,-0.052507974207401276
-178.61376953125,78.48992919921875,-116.17330932617188,-9.735541343688965,-0.03499922901391983,-2.0386946201324463,0.08278544992208481,-0.006809830665588379,-0.021960588172078133
-178.69058227539062,78.46708679199219,-116.2276382446289,-9.625652313232422,-0.0032550026662647724,-1.9482755661010742,0.03309231251478195,-0.003804638981819153,-0.0019766392651945353
-178.7217254638672,78.4050064086914,-116.2213363647461,-9.651363372802734,0.007607622537761927,-1.917771577835083,0.00163707893807441,0.04104692488908768,0.00016111884906422347
-178.781005859375,78.34254455566406,-116.22840118408203,-9.711607933044434,-0.06162611395120621,-1.9816428422927856,-0.04065968841314316,0.06721784919500351,-0.004670396912842989
-178.95143127441406,78.26184844970703,-116.31482696533203,-9.733001708984375,-0.05095719173550606,-2.011993169784546,-0.05608239397406578,0.08661840856075287,0.007096493151038885
-179.07302856445312,78.20919799804688,-116.20024871826172,-9.6768217086792,-0.026095189154148102,-1.9901000261306763,-0.14131669700145721,0.12574182450771332,0.01814160868525505
-179.03927612304688,78.20789337158203,-115.85528564453125,-9.51954174041748,0.026768282055854797,-1.9731054306030273,-0.3295992612838745,0.05600287392735481,-0.05119295418262482
-178.93588256835938,78.13973999023438,-115.6343002319336,-9.476149559020996,0.022462110966444016,-1.9836455583572388,-0.3494003713130951,0.07339887320995331,-0.05096200108528137
-178.58750915527344,78.07347869873047,-115.31572723388672,-9.493305206298828,-0.01619277335703373,-2.0442941188812256,-0.18406251072883606,0.10397791117429733,-0.07931852340698242
-178.41258239746094,78.05867767333984,-115.16588592529297,-9.451318740844727,-0.1492254137992859,-2.066709041595459,-0.1083131954073906,0.0859307125210762,-0.08700042963027954
-178.49951171875,78.07025146484375,-115.33069610595703,-9.49885368347168,-0.18821170926094055,-2.032393455505371,-0.033248960971832275,0.045971762388944626,-0.04498474299907684
-178.6298370361328,78.08753204345703,-115.54695129394531,-9.542750358581543,0.044729072600603104,-1.960472822189331,0.04785154014825821,0.02512280084192753,0.020148420706391335
-178.49911499023438,78.102294921875,-115.4713134765625,-9.54039478302002,0.03710687905550003,-1.9987287521362305,0.05377884954214096,-0.0038269904907792807,0.015672478824853897
-178.206298828125,78.08499908447266,-115.25619506835938,-9.584927558898926,-0.17647971212863922,-2.0954487323760986,0.08605402708053589,0.006228872574865818,-0.020016735419631004
-178.05824279785156,78.07609558105469,-115.16474914550781,-9.577536582946777,-0.04734703525900841,-1.9858697652816772,0.10450129956007004,0.021622147411108017,-0.040421273559331894
-178.09527587890625,78.10791015625,-115.2259750366211,-9.573495864868164,-0.0020530226174741983,-1.9513508081436157,0.07689465582370758,0.0027673321310430765,-0.010815638117492199
-178.1053466796875,78.14899444580078,-115.2471923828125,-9.54783821105957,0.06587212532758713,-2.0176775455474854,0.060573041439056396,-0.03218986466526985,-0.003576651681214571
-178.15249633789062,78.18438720703125,-115.2724609375,-9.445579528808594,-0.005446101538836956,-1.9957914352416992,0.027910811826586723,-0.032910335808992386,0.0047849491238594055
-178.19097900390625,78.21705627441406,-115.26922607421875,-9.357898712158203,0.016899917274713516,-1.9555200338363647,-0.013338029384613037,-0.0569954551756382,0.0048102810978889465
-178.14552307128906,78.22593688964844,-115.1855697631836,-9.284116744995117,-0.038600318133831024,-1.9584739208221436,-0.0383276529610157,-0.0292215496301651,0.0026913355104625225
-177.90843200683594,78.2752456665039,-114.94023895263672,-9.332079887390137,-0.08038778603076935,-1.9428855180740356,-0.045573342591524124,-0.04062242805957794,-0.025136029347777367
-177.57958984375,78.34810638427734,-114.68871307373047,-9.449695587158203,-0.05947672203183174,-1.925154447555542,-0.005010887980461121,-0.0739414244890213,-0.05423353239893913
-177.2999267578125,78.42559814453125,-114.5425033569336,-9.66423225402832,-0.10093570500612259,-1.9929654598236084,0.09655337035655975,-0.09357631951570511,-0.05259066820144653
-177.13784790039062,78.49275207519531,-114.46672058105469,-9.696043968200684,-0.16962936520576477,-2.0747177600860596,0.12966078519821167,-0.11422858387231827,-0.04466773197054863
-177.1626434326172,78.51913452148438,-114.49473571777344,-9.744465827941895,-0.14775921404361725,-2.0439815521240234,0.11322257667779922,-0.09415896236896515,-0.026533013209700584
-177.2460479736328,78.51856231689453,-114.50530242919922,-9.668237686157227,-0.15743856132030487,-1.9971957206726074,0.014053846709430218,-0.06204993650317192,-0.003985688090324402
-177.1892547607422,78.47206115722656,-114.39452362060547,-9.64867115020752,-0.12437398731708527,-1.9453160762786865,-0.03513805940747261,-0.02720952033996582,-0.016818569973111153
-177.15415954589844,78.39067077636719,-114.31885528564453,-9.672924995422363,-0.08765055984258652,-1.9749430418014526,-0.04811994731426239,0.0479063056409359,-0.02745501883327961
-177.2111053466797,78.3619613647461,-114.33056640625,-9.686751365661621,-0.06119433790445328,-1.990189552307129,-0.06189309433102608,0.0692242681980133,-0.020674245432019234
-177.34359741210938,78.38201904296875,-114.39482879638672,-9.680557250976562,0.043621648102998734,-1.9364172220230103,-0.07261522859334946,0.03245678171515465,-0.0029690563678741455
-177.5271759033203,78.3938980102539,-114.49696350097656,-9.74679183959961,0.08798357099294662,-1.9785091876983643,-0.11761339008808136,0.006471389438956976,0.008735248818993568
-177.956787109375,78.4640121459961,-114.86599731445312,-9.971185684204102,0.044568151235580444,-2.1418581008911133,-0.10774993896484375,0.010507370345294476,0.02720971219241619
-178.8762664794922,78.6745834350586,-115.66136169433594,-10.498964309692383,0.2529599070549011,-2.0053117275238037,-0.13546611368656158,-0.11751578748226166,0.11749734729528427
-179.96109008789062,78.80430603027344,-116.47171020507812,-10.993361473083496,0.45361751317977905,-1.9298100471496582,-0.22344936430454254,-0.22815553843975067,0.19711917638778687
179.55990600585938,78.5239028930664,-116.6771469116211,-11.656900405883789,0.4327942728996277,-2.2410728931427,-0.4248258173465729,-0.10890339314937592,0.20093213021755219
-179.5293426513672,77.5648193359375,-115.8499984741211,-12.860444068908691,0.8657314777374268,-2.591935634613037,-0.2903050482273102,0.37300705909729004,0.06918297708034515
-178.4136199951172,75.84364318847656,-115.01656341552734,-14.784299850463867,1.6061958074569702,-2.9027607440948486,0.03427865728735924,1.1950938701629639,-0.16984225809574127
-178.22467041015625,73.40280151367188,-115.03640747070312,-16.930030822753906,1.9215352535247803,-3.530884265899658,0.19614659249782562,2.178297758102417,-0.15645787119865417
-179.13851928710938,70.6905288696289,-115.71932220458984,-18.88700294494629,0.3711000680923462,-4.685627460479736,0.19861070811748505,3.278744697570801,-0.13253729045391083
177.36282348632812,68.33424377441406,-117.86273956298828,-20.167667388916016,0.05258267745375633,-6.021395206451416,-0.46717214584350586,3.644423246383667,0.23563288152217865
172.70985412597656,66.07341003417969,-120.38321685791016,-20.15351676940918,0.9015461206436157,-6.320287227630615,-1.919061303138733,3.7294163703918457,1.0488253831863403
169.4044189453125,63.6732177734375,-122.24686431884766,-20.501869201660156,0.8655636310577393,-6.441926956176758,-2.5635952949523926,3.700897216796875,1.3331042528152466
166.4875030517578,60.99633026123047,-124.8210220336914,-20.651962280273438,-0.5884091258049011,-6.291434288024902,-2.1642303466796875,3.950543165206909,1.7822706699371338
162.84234619140625,58.31983184814453,-128.41358947753906,-18.48712921142578,-1.144535779953003,-6.177833080291748,-1.4879558086395264,3.922175645828247,2.52767014503479
158.64759826660156,55.600616455078125,-131.98602294921875,-15.057180404663086,-1.048109769821167,-6.166070938110352,-1.568056583404541,3.75899338722229,3.497528076171875
155.2773895263672,52.928829193115234,-134.73060607910156,-13.164703369140625,0.4450613558292389,-4.475419521331787,-1.9345216751098633,3.5506234169006348,3.8213565349578857
152.92808532714844,50.035030364990234,-137.0905303955078,-11.857211112976074,-0.43527519702911377,-3.6028544902801514,-1.5949430465698242,3.3927066326141357,4.1130266189575195
151.47853088378906,46.90943908691406,-138.6930389404297,-10.022089958190918,-1.3780020475387573,-2.8422200679779053,-1.1872588396072388,3.62420654296875,4.208650588989258
150.43179321289062,44.06523895263672,-139.73831176757812,-7.616480350494385,-1.9695556163787842,-3.0375213623046875,-0.8592547178268433,3.775254011154175,4.058995246887207
149.43226623535156,41.56728744506836,-140.42051696777344,-4.76782751083374,-2.2624776363372803,-3.355867385864258,-0.8820144534111023,3.6019842624664307,3.6564903259277344
148.69793701171875,39.165382385253906,-140.9900360107422,-3.0304219722747803,-1.1291030645370483,-2.3792054653167725,-0.9370895028114319,3.510371685028076,3.353994131088257
148.2843017578125,37.06975173950195,-141.58261108398438,-1.902180552482605,0.5565713047981262,-1.399147629737854,-0.606412947177887,3.299696445465088,3.11959171295166
147.68772888183594,35.333580017089844,-142.12164306640625,-1.2420865297317505,1.1157463788986206,-2.0956242084503174,-0.4235917329788208,2.93131947517395,2.8286614418029785
146.7837677001953,33.83599090576172,-142.68203735351562,-0.10169702768325806,0.06160217523574829,-3.1246259212493896,-0.6724499464035034,2.552220344543457,2.542034864425659
146.015625,32.619606018066406,-143.29183959960938,0.7418158650398254,-0.009498417377471924,-3.3725810050964355,-0.7781386375427246,2.1337525844573975,2.4033446311950684
145.4779052734375,31.724348068237305,-143.78895568847656,0.8725020289421082,0.8216342926025391,-2.9060630798339844,-0.647337794303894,1.6951037645339966,2.073319673538208
144.70834350585938,30.980918884277344,-144.47789001464844,0.7553079724311829,2.047189474105835,-2.474546194076538,-0.6095031499862671,1.325461983680725,1.8252136707305908
143.62782287597656,30.321435928344727,-145.3934326171875,0.8222622871398926,2.1975746154785156,-2.5010318756103516,-0.7569822669029236,0.8512960076332092,1.8433895111083984
142.54254150390625,29.72994613647461,-146.3143768310547,0.8515055179595947,2.8070249557495117,-2.605252981185913,-0.9152213931083679,0.6036132574081421,1.7863620519638062
141.4510498046875,29.44817352294922,-147.35482788085938,1.7195277214050293,2.5805468559265137,-2.5560874938964844,-0.9322496056556702,0.23628568649291992,1.8015878200531006
140.31689453125,29.659454345703125,-148.41973876953125,2.0812857151031494,4.136765956878662,-2.161529302597046,-0.9870505928993225,-0.21280351281166077,1.5439656972885132
138.9906768798828,30.285308837890625,-149.72857666015625,2.232116460800171,4.792542457580566,-2.3706510066986084,-1.0007402896881104,-0.859512209892273,1.2919620275497437
137.68348693847656,31.225627899169922,-151.0351104736328,3.2032723426818848,4.280160427093506,-2.408280849456787,-1.1460199356079102,-1.469081997871399,1.0689878463745117
136.9584503173828,32.53746795654297,-151.94517517089844,4.770133972167969,4.013424873352051,-2.347186326980591,-0.9582878351211548,-1.9242106676101685,0.6064460873603821
136.7682342529297,34.14912796020508,-152.43934631347656,5.536261081695557,4.469995021820068,-1.7452625036239624,-0.5984141230583191,-2.147305488586426,-0.08248896151781082
136.75205993652344,36.027870178222656,-152.93724060058594,5.2076005935668945,5.549979209899902,-0.6318215727806091,-0.1944914162158966,-2.3302245140075684,-0.6920822262763977
136.6687469482422,38.34701156616211,-153.6695098876953,4.031423568725586,6.226315021514893,-0.22689750790596008,0.08897034823894501,-2.7011325359344482,-1.1018593311309814
136.87484741210938,41.167232513427734,-154.26806640625,2.9703562259674072,4.982609748840332,-0.7180449366569519,0.35353973507881165,-3.280125617980957,-1.6141459941864014
137.78524780273438,44.12065124511719,-154.28729248046875,2.2345330715179443,3.3954918384552,-0.586200475692749,0.7731340527534485,-3.563591480255127,-2.267307996749878
139.25537109375,47.010746002197266,-153.80905151367188,0.5519921183586121,2.5398879051208496,-0.6970016360282898,1.221419095993042,-3.5329904556274414,-2.8052165508270264
141.13137817382812,49.840484619140625,-152.8296356201172,-1.315962791442871,1.4946376085281372,-1.2116481065750122,1.5578105449676514,-3.435262441635132,-3.2168664932250977
143.36048889160156,52.70171356201172,-151.19808959960938,-2.3211233615875244,1.1262139081954956,-0.8298105597496033,1.689434289932251,-3.1754019260406494,-3.603708028793335
145.7789306640625,55.93296813964844,-149.26683044433594,-4.524758815765381,1.7842729091644287,-0.8602466583251953,1.5763275623321533,-3.1141550540924072,-4.070298194885254
148.4877471923828,59.38652801513672,-147.2715301513672,-6.264049530029297,0.7873813509941101,-1.2344764471054077,1.6241874694824219,-3.4922261238098145,-4.417887210845947
151.9700469970703,62.62470626831055,-144.5626220703125,-7.580684185028076,-0.581814706325531,-1.0983843803405762,1.7217950820922852,-3.6674015522003174,-4.502784729003906
157.76495361328125,65.7365951538086,-139.72923278808594,-9.32053279876709,-1.1078274250030518,-1.6128188371658325,1.82833731174469,-3.598160743713379,-4.713714599609375
164.65902709960938,68.71197509765625,-133.74606323242188,-11.983015060424805,0.11051790416240692,-2.5780575275421143,2.4265992641448975,-3.422471523284912,-5.414276599884033
168.27053833007812,71.7130355834961,-130.28985595703125,-13.845905303955078,-0.47390785813331604,-3.3637337684631348,1.8663307428359985,-3.809251546859741,-4.750981330871582
171.68182373046875,74.57127380371094,-126.54073333740234,-13.391780853271484,-2.5039069652557373,-3.943502902984619,1.0894067287445068,-4.200075626373291,-3.9301605224609375
177.4099578857422,76.92662048339844,-120.51069641113281,-13.457876205444336,-3.3256571292877197,-3.7938032150268555,0.3569985628128052,-4.1466288566589355,-3.6269853115081787
-174.38723754882812,78.79015350341797,-112.30322265625,-15.435938835144043,-3.388883590698242,-3.636608362197876,0.49519357085227966,-3.8434319496154785,-3.330345392227173
-162.77792358398438,79.7759780883789,-100.45622253417969,-17.6580810546875,-3.3655691146850586,-4.171280384063721,0.1629033386707306,-3.635082721710205,-3.206700086593628
-151.8887176513672,79.31205749511719,-89.5616683959961,-19.061187744140625,-3.551159381866455,-4.023386478424072,0.27185356616973877,-2.6221320629119873,-3.567460060119629
-147.9114990234375,78.8421630859375,-85.701171875,-20.93570327758789,-1.983463168144226,-3.9733166694641113,0.27580729126930237,-1.5973188877105713,-3.1181817054748535
-147.88772583007812,78.84901428222656,-86.1527099609375,-22.144393920898438,-1.0747922658920288,-3.7628397941589355,0.3598284125328064,-0.9552929997444153,-1.9562854766845703
-149.13629150390625,78.85042572021484,-88.19805908203125,-22.764392852783203,-0.9332741498947144,-3.6568846702575684,0.7261017560958862,-0.5821672677993774,-1.0164140462875366
-150.28176879882812,78.3584213256836,-89.90560150146484,-23.225189208984375,1.072211503982544,-3.725918769836426,0.9481337666511536,-0.033227868378162384,-0.3381859362125397
-151.55931091308594,77.57331085205078,-91.61915588378906,-21.320039749145508,-2.2528820037841797,-5.092369556427002,0.6991450190544128,0.4782506227493286,-0.5917415618896484
-158.21290588378906,77.15265655517578,-99.01233673095703,-20.684743881225586,-2.1226909160614014,-4.887325763702393,0.9386617541313171,0.9974093437194824,0.14502392709255219
-167.26095581054688,76.64260864257812,-108.23065948486328,-18.715852737426758,-3.0045511722564697,-5.440640449523926,0.7435001730918884,1.3327349424362183,1.5127971172332764
-174.17620849609375,75.6789321899414,-114.7665786743164,-17.298208236694336,-2.252814769744873,-4.877817630767822,0.09536214172840118,1.5724633932113647,1.8602092266082764
178.87411499023438,74.42677307128906,-121.2302017211914,-16.79329490661621,-1.5582553148269653,-3.686889171600342,-0.3494846522808075,1.8341374397277832,2.0967860221862793
171.65939331054688,72.75101470947266,-127.92115020751953,-16.490936279296875,-0.8335984349250793,-3.0592715740203857,-0.7940503358840942,2.0218307971954346,2.596586227416992
166.13807678222656,70.43474578857422,-133.25717163085938,-16.30934715270996,-1.0237679481506348,-2.366178035736084,-0.9396994113922119,2.4359545707702637,3.0461113452911377
163.64002990722656,67.56361389160156,-136.17308044433594,-16.18025016784668,0.6615554690361023,-0.7716106176376343,-0.6613413095474243,2.9841196537017822,3.216179370880127
162.82289123535156,64.318115234375,-137.73497009277344,-17.41216468811035,1.9842244386672974,-0.9404885768890381,0.0853402242064476,3.836228370666504,2.876030921936035
161.1967315673828,60.93643569946289,-139.7568359375,-17.55640411376953,0.5533919334411621,-2.633012533187866,0.23742149770259857,4.301634788513184,2.9815261363983154
160.15963745117188,57.656768798828125,-141.09576416015625,-15.505356788635254,-2.629960536956787,-3.9476494789123535,0.11952096223831177,4.661548614501953,3.251319646835327
158.4127197265625,54.67353057861328,-142.6650390625,-13.341323852539062,-0.3798118531703949,-3.410559892654419,0.3123815655708313,4.644972324371338,2.7665047645568848
154.908935546875,51.62282943725586,-145.0430908203125,-11.21019172668457,-1.443536400794983,-3.678415298461914,-1.0152771472930908,4.367311000823975,3.737879991531372
152.7651824951172,49.04076385498047,-146.3784637451172,-8.348633766174316,-1.7769789695739746,-2.5075976848602295,-1.3763355016708374,4.105945587158203,3.5524728298187256
150.3343963623047,46.74763107299805,-147.9934844970703,-6.464125156402588,-2.2645058631896973,-2.826450824737549,-1.5923714637756348,3.6269760131835938,3.5498435497283936
147.7235107421875,44.61677169799805,-149.65423583984375,-5.204247951507568,-0.039976682513952255,-2.0379676818847656,-1.9106967449188232,3.088691473007202,3.609816074371338
145.57150268554688,42.55592346191406,-151.04373168945312,-3.961719274520874,-0.2659955620765686,-1.1925400495529175,-2.131948947906494,2.6705901622772217,3.638417959213257
143.85133361816406,40.583534240722656,-152.3068084716797,-2.396763563156128,-0.3485112488269806,-1.3944660425186157,-1.8405439853668213,2.449192762374878,3.453141689300537
142.07090759277344,38.840450286865234,-153.58094787597656,-2.6640632152557373,0.09739282727241516,-2.4387500286102295,-1.831885814666748,2.1005702018737793,3.52297043800354
141.0089569091797,37.32072067260742,-154.42276000976562,-2.1271414756774902,1.3330357074737549,-2.3779585361480713,-1.6770142316818237,1.7571191787719727,3.1491029262542725
140.1265106201172,35.740562438964844,-155.1450958251953,-1.2775415182113647,0.13597093522548676,-2.925218105316162,-1.1026062965393066,1.7073670625686646,2.9425837993621826
139.00559997558594,34.36184310913086,-155.68682861328125,-0.2751331329345703,1.0336302518844604,-3.58685302734375,-1.3757976293563843,1.5732016563415527,2.731151819229126
138.3104705810547,33.283775329589844,-156.03091430664062,0.2843903601169586,2.3187460899353027,-3.216890335083008,-1.149274230003357,1.451114535331726,2.380976676940918
137.37362670898438,32.439212799072266,-156.5435028076172,0.6686177849769592,3.225402593612671,-3.1992006301879883,-1.1185890436172485,1.2146179676055908,1.9716802835464478
136.1960906982422,31.796825408935547,-157.29367065429688,0.22801922261714935,4.366580963134766,-3.9145848751068115,-1.1893694400787354,0.8230710625648499,1.9672561883926392
135.22012329101562,31.485105514526367,-157.8312530517578,0.39924463629722595,4.371744632720947,-3.862727165222168,-1.2826274633407593,0.45187389850616455,1.5971895456314087
134.39395141601562,31.258699417114258,-158.40093994140625,0.39258548617362976,4.722751617431641,-4.323867321014404,-1.1183466911315918,0.19570878148078918,1.3372143507003784
133.4652099609375,31.220815658569336,-158.99671936035156,0.8433004021644592,4.747647762298584,-4.401822566986084,-1.0912666320800781,-0.06481737643480301,1.1488807201385498
132.46109008789062,31.49583625793457,-159.58663940429688,2.1298718452453613,4.262422561645508,-4.535416126251221,-1.1111491918563843,-0.3337143659591675,0.8628023862838745
131.37086486816406,32.07175064086914,-160.28167724609375,3.2086663246154785,4.011958599090576,-4.526295185089111,-1.198739767074585,-0.7054840922355652,0.543321967124939
130.37330627441406,32.953285217285156,-160.98297119140625,4.3546342849731445,3.8137423992156982,-3.9343647956848145,-1.176160454750061,-1.0734690427780151,0.270247220993042
129.50640869140625,34.28556442260742,-161.560546875,5.0770111083984375,4.83338737487793,-2.9476113319396973,-1.1068695783615112,-1.4245500564575195,-0.20452018082141876
128.9578094482422,35.99164962768555,-162.02244567871094,4.588944911956787,5.20720911026001,-2.1095805168151855,-1.0203490257263184,-1.7958780527114868,-0.7594508528709412
129.091552734375,37.94968795776367,-162.1678924560547,4.135637283325195,4.639217853546143,-1.66899836063385,-0.5739249587059021,-2.034681797027588,-1.3259638547897339
129.3412322998047,40.307621002197266,-162.14259338378906,3.5839829444885254,3.943714141845703,-1.8126262426376343,-0.051439810544252396,-2.089745283126831,-1.9426851272583008
128.9122772216797,43.146305084228516,-162.49949645996094,2.294489860534668,3.3600263595581055,-2.0502452850341797,-0.09653052687644958,-2.544318914413452,-2.573646068572998
128.1752166748047,46.10408401489258,-163.09957885742188,1.0916361808776855,3.7624433040618896,-0.9559523463249207,-0.2870951294898987,-3.033888101577759,-2.9239180088043213
127.81047821044922,49.17730712890625,-163.4027099609375,-0.27711620926856995,3.523728609085083,0.025205645710229874,-0.37551799416542053,-3.303483486175537,-3.235422372817993
128.41845703125,52.4061279296875,-163.01162719726562,-1.87515389919281,2.8948965072631836,0.3010050654411316,-0.16205748915672302,-3.311352252960205,-3.7048261165618896
130.45578002929688,55.729164123535156,-161.577880859375,-3.836768865585327,2.54532527923584,0.771245539188385,0.34264856576919556,-3.1484925746917725,-4.222194671630859
134.06954956054688,59.05450439453125,-158.7167205810547,-5.985633850097656,1.4268049001693726,-0.397909939289093,1.06525456905365,-2.75076961517334,-4.8676605224609375
139.0533447265625,62.27470779418945,-154.3087158203125,-8.414324760437012,-0.7538256049156189,-1.9886741638183594,1.4467849731445312,-2.3624050617218018,-5.416099548339844
145.3817138671875,64.97702026367188,-148.3020782470703,-11.51844596862793,-0.005687723867595196,-3.0061235427856445,1.669080138206482,-1.8978837728500366,-6.025102615356445
150.66236877441406,66.8769760131836,-142.99862670898438,-14.580771446228027,0.614922046661377,-3.9471824169158936,1.4968355894088745,-1.3374440670013428,-5.9366278648376465
154.66510009765625,68.4057846069336,-138.9529266357422,-17.082258224487305,-1.5140312910079956,-5.483983039855957,0.9891771078109741,-1.350915551185608,-5.0359368324279785
159.54310607910156,69.4179458618164,-134.34246826171875,-19.377580642700195,-0.3018357455730438,-6.006204605102539,0.9294136166572571,-1.0914192199707031,-4.523868083953857
164.46456909179688,70.1942367553711,-130.0095672607422,-21.8695125579834,2.0679545402526855,-5.743618488311768,1.0701501369476318,-0.7633330821990967,-3.8603579998016357
169.30079650878906,71.08377075195312,-125.85701751708984,-21.729997634887695,3.2068495750427246,-4.884562015533447,1.3589787483215332,-0.8338497281074524,-3.5525431632995605
171.5398406982422,71.68986511230469,-123.94683074951172,-21.149574279785156,4.613005638122559,-3.7160377502441406,1.2977721691131592,-0.9221497178077698,-2.9942100048065186
171.58009338378906,71.96054077148438,-124.014404296875,-19.68326187133789,3.1064693927764893,-3.9545421600341797,0.788170337677002,-0.7857661843299866,-1.7852685451507568
172.48512268066406,71.95558166503906,-123.86039733886719,-18.33830451965332,1.3705813884735107,-4.641707420349121,0.6718484163284302,-0.6082807779312134,-1.2462230920791626
171.27731323242188,71.80076599121094,-125.86040496826172,-17.643741607666016,2.810537338256836,-4.633288860321045,1.432355284690857,-0.1610727608203888,-0.6172717213630676
167.12767028808594,71.97738647460938,-129.36019897460938,-16.28093910217285,1.1076140403747559,-5.37484884262085,0.44293081760406494,-0.3498733937740326,0.4988456666469574
163.98033142089844,72.0860366821289,-131.6175079345703,-14.484715461730957,-0.5808671712875366,-4.9906744956970215,-0.46031391620635986,-0.4819062054157257,0.6833752393722534
161.5325927734375,71.73690032958984,-133.77462768554688,-12.941609382629395,-1.7002705335617065,-4.340940475463867,-0.8484708666801453,-0.36269131302833557,0.9393371343612671
160.20997619628906,70.98587799072266,-135.2508544921875,-12.408647537231445,-1.3581104278564453,-4.190365791320801,-0.31549981236457825,0.11567550897598267,1.0388628244400024
158.28421020507812,70.0448226928711,-136.87168884277344,-13.54681396484375,-0.6066112518310547,-4.1426496505737305,-0.4162805676460266,0.5055307745933533,1.1045798063278198
156.2994384765625,68.61473083496094,-138.84954833984375,-15.226518630981445,0.25012242794036865,-3.7783589363098145,-0.6087039709091187,0.8132876753807068,1.398474931716919
155.31361389160156,66.5691909790039,-140.32571411132812,-17.232358932495117,1.6978483200073242,-3.6015312671661377,-0.05193324759602547,1.5248409509658813,1.7971773147583008
154.93386840820312,64.1935043334961,-141.076904296875,-18.19179916381836,1.4408241510391235,-4.030803680419922,0.0858163982629776,2.167149305343628,1.9438319206237793
154.7286376953125,61.473716735839844,-141.86993408203125,-19.511165618896484,3.0448968410491943,-4.172226905822754,0.36619240045547485,2.8995325565338135,2.091210126876831
153.68629455566406,58.847694396972656,-143.34291076660156,-19.73843002319336,3.138339042663574,-4.367527008056641,0.5637056827545166,3.3118321895599365,2.4351491928100586
151.92149353027344,56.287437438964844,-145.04200744628906,-17.675678253173828,2.353879690170288,-4.870584011077881,0.2091531753540039,3.170138359069824,2.7962734699249268
150.63121032714844,53.35381317138672,-146.42523193359375,-15.276026725769043,1.2706247568130493,-3.770244836807251,-0.19845998287200928,3.3736822605133057,3.1226487159729004
149.5828857421875,50.348297119140625,-147.6092987060547,-13.373734474182129,0.5920515656471252,-4.408346652984619,0.13056592643260956,3.5996804237365723,3.385714530944824
147.9671173095703,47.3806266784668,-148.7510528564453,-11.435029983520508,-0.7866086363792419,-4.477937698364258,-0.5343842506408691,3.7156031131744385,3.438657760620117
146.36830139160156,44.556217193603516,-149.94444274902344,-11.056909561157227,0.6982162594795227,-3.331995725631714,-0.6680627465248108,3.5955402851104736,3.805635929107666
145.3595733642578,41.96516418457031,-150.36378479003906,-7.482848167419434,-0.45453664660453796,-3.087008476257324,-1.1312261819839478,3.480175018310547,3.5405123233795166
144.936767578125,39.519779205322266,-150.6409149169922,-3.991237163543701,-1.5701370239257812,-3.2435059547424316,-0.8158678412437439,3.5308074951171875,3.2843070030212402
144.02708435058594,37.48357391357422,-151.1948699951172,-1.7874114513397217,-0.7346017956733704,-2.8862059116363525,-0.7648602724075317,3.268343687057495,2.9795150756835938
142.73785400390625,35.80302429199219,-152.1734161376953,-0.40869686007499695,-0.7854185104370117,-2.954529047012329,-1.0481324195861816,2.722219467163086,2.9932363033294678
141.53512573242188,34.30638122558594,-153.21914672851562,0.36569342017173767,1.1367552280426025,-2.0046896934509277,-0.9237356185913086,2.073377847671509,2.86887788772583
140.05540466308594,32.83321762084961,-154.3061981201172,0.10760782659053802,1.7747772932052612,-1.678041696548462,-1.151010274887085,1.8054770231246948,2.9223153591156006
139.22906494140625,31.71903419494629,-154.92709350585938,0.6911389827728271,2.746458053588867,-2.264477491378784,-1.2974086999893188,1.255814790725708,2.817375421524048
139.10157775878906,30.85260009765625,-154.90931701660156,1.308293104171753,2.5558314323425293,-3.5516488552093506,-0.6993847489356995,1.434137225151062,2.0851945877075195
138.28616333007812,30.323802947998047,-155.20997619628906,1.2808747291564941,1.6366567611694336,-4.7503461837768555,-0.8705260157585144,1.0031826496124268,1.6880420446395874
137.76229858398438,29.920358657836914,-155.26544189453125,1.9073889255523682,3.4455578327178955,-4.637945652008057,-0.9872932434082031,0.8189725279808044,1.3620394468307495
137.4754180908203,29.78445053100586,-155.4087677001953,1.1405118703842163,3.993654251098633,-4.339797496795654,-0.7579415440559387,0.6476984024047852,0.8692044615745544
136.90975952148438,29.736421585083008,-156.10365295410156,-0.0366925448179245,5.365240573883057,-4.54197883605957,-0.6161739826202393,0.20152735710144043,0.8173545002937317
136.3012237548828,29.735918045043945,-156.82568359375,0.19970017671585083,5.326876640319824,-4.712080001831055,-0.5277766585350037,-0.20214635133743286,0.8900358080863953
135.77639770507812,29.907564163208008,-157.2694091796875,1.459517002105713,4.816926002502441,-4.867465496063232,-0.5268951654434204,-0.3418034613132477,0.7310156226158142
135.2448272705078,30.3987979888916,-157.67550659179688,2.115340232849121,4.8183465003967285,-5.105694770812988,-0.5365464091300964,-0.5411869287490845,0.4389198124408722
134.7073211669922,31.087074279785156,-158.0129852294922,2.258451461791992,4.283834457397461,-5.0440897941589355,-0.5649811029434204,-0.8427838087081909,0.13256968557834625
134.17018127441406,31.810562133789062,-158.13014221191406,1.8216947317123413,4.744073867797852,-4.501556396484375,-0.6109269261360168,-0.9076071977615356,-0.18118827044963837
133.6331329345703,32.73111343383789,-158.18125915527344,0.8774003982543945,4.754396438598633,-4.531926155090332,-0.7873759269714355,-0.9467142224311829,-0.4648849666118622
133.32081604003906,33.884273529052734,-158.24508666992188,0.25478023290634155,5.503587245941162,-4.181350231170654,-0.7159638404846191,-1.131182312965393,-0.8242505788803101
133.20101928710938,35.13338851928711,-158.28143310546875,-0.2190745621919632,4.926815986633301,-4.565552711486816,-0.5578266978263855,-1.2739039659500122,-1.0331127643585205
133.05880737304688,36.590576171875,-158.15724182128906,-0.6340504884719849,4.428901672363281,-4.721582889556885,-0.33663156628608704,-1.3953168392181396,-1.3379889726638794
132.89312744140625,38.253665924072266,-157.80381774902344,-0.34922662377357483,4.483165740966797,-4.171088695526123,-0.5986857414245605,-1.4984005689620972,-1.6650015115737915
132.90370178222656,40.16131591796875,-157.36976623535156,-0.7234604358673096,4.96355676651001,-3.1661059856414795,-0.40374740958213806,-1.512223720550537,-2.1386730670928955
132.53761291503906,42.37035369873047,-157.3964080810547,-1.306572675704956,5.149813175201416,-2.9348247051239014,-0.6480488181114197,-1.8363078832626343,-2.3605117797851562
132.04017639160156,44.99223327636719,-157.8307647705078,-1.4191315174102783,4.372398376464844,-2.1366586685180664,-0.37861451506614685,-2.3095145225524902,-2.594619035720825
131.21864318847656,48.04380416870117,-158.4552459716797,-1.411994218826294,2.7818610668182373,-2.1052966117858887,-0.6335347890853882,-3.0295913219451904,-2.766573190689087
130.95814514160156,51.18254852294922,-158.64736938476562,-1.781578540802002,2.5328056812286377,-1.7011640071868896,-0.4266212284564972,-3.3681845664978027,-3.31972336769104
130.73109436035156,54.12702178955078,-158.67848205566406,-3.593155860900879,1.3633110523223877,-1.1991366147994995,-0.39721930027008057,-3.445077896118164,-3.4191172122955322
130.90377807617188,57.01656723022461,-158.205322265625,-5.547107219696045,1.1897295713424683,-1.2708795070648193,-0.38814839720726013,-3.313220500946045,-3.766446828842163
131.7711639404297,59.49527359008789,-157.17050170898438,-8.017851829528809,0.036247242242097855,-2.146198272705078,-0.3635771870613098,-3.0782034397125244,-3.777918577194214
134.66810607910156,61.38238525390625,-154.32652282714844,-11.048476219177246,-0.34242913126945496,-3.469850778579712,-0.03580796346068382,-2.3809642791748047,-3.865985631942749
139.46795654296875,62.63933181762695,-149.80662536621094,-14.919156074523926,0.31149861216545105,-3.826157331466675,0.46166983246803284,-1.1913434267044067,-3.9747753143310547
144.69479370117188,63.668067932128906,-145.0541534423828,-17.332109451293945,2.0034079551696777,-4.12884521484375,1.003737211227417,-0.3081742823123932,-4.070564270019531
149.41925048828125,64.79930114746094,-140.97178649902344,-18.452497482299805,3.558488130569458,-4.250941276550293,1.2444251775741577,-0.035397619009017944,-3.93803071975708
152.67799377441406,66.17926025390625,-138.34271240234375,-19.615047454833984,3.993119716644287,-4.50740909576416,1.6018835306167603,-0.2653346657752991,-3.7946388721466064
152.99073791503906,67.52291107177734,-138.16574096679688,-19.13704490661621,3.969277858734131,-4.46172571182251,1.1305309534072876,-0.9848577380180359,-2.9756336212158203
152.02880859375,68.4954605102539,-139.06546020507812,-17.48151969909668,5.03095006942749,-3.677833080291748,0.66861492395401,-1.302250862121582,-2.019665479660034
150.2128143310547,69.26307678222656,-140.71044921875,-16.12757682800293,4.083422660827637,-3.470855951309204,0.19456127285957336,-1.4519180059432983,-1.2312477827072144
148.14776611328125,69.83026123046875,-142.7788543701172,-14.685545921325684,3.0365192890167236,-3.3894083499908447,-0.050785936415195465,-1.512609839439392,-0.5415661334991455
146.23265075683594,70.30394744873047,-144.6075897216797,-13.702252388000488,1.916311502456665,-3.497321128845215,-0.004379489459097385,-1.4299509525299072,-0.1184496209025383
144.33880615234375,70.60103607177734,-146.19412231445312,-12.750905990600586,1.156148076057434,-4.129274368286133,-0.4070008099079132,-1.3629450798034668,0.04689678177237511
143.05416870117188,70.4839859008789,-147.418701171875,-12.388900756835938,0.7133838534355164,-4.054698944091797,-0.3047769069671631,-1.0170220136642456,0.29250094294548035
142.33055114746094,70.21676635742188,-147.95948791503906,-11.883173942565918,0.7897020578384399,-3.6444075107574463,-0.3429615795612335,-0.5972814559936523,0.451472669839859
141.7257080078125,69.91252136230469,-148.39578247070312,-12.241287231445312,1.707400918006897,-3.359811782836914,-0.34818288683891296,-0.2369786947965622,0.37585020065307617
140.24923706054688,69.43972778320312,-149.7797088623047,-13.105056762695312,2.027888059616089,-3.3655099868774414,-0.3445800244808197,-0.09858182072639465,0.6075169444084167
138.5924530029297,68.71170043945312,-151.49822998046875,-14.027580261230469,2.8465588092803955,-3.2151098251342773,-0.32491666078567505,-0.020264172926545143,0.9417776465415955
137.47113037109375,67.58735656738281,-153.09646606445312,-15.56551456451416,3.741486072540283,-2.7926461696624756,-0.11818309873342514,0.19574549794197083,1.3084737062454224
137.47769165039062,65.98807525634766,-154.10621643066406,-17.289648056030273,4.24026346206665,-2.9109997749328613,0.41440895199775696,0.5583807826042175,1.7194161415100098
138.11241149902344,63.86530303955078,-154.49493408203125,-18.160966873168945,5.216135025024414,-3.2828080654144287,1.0850070714950562,1.2435977458953857,1.9872030019760132
138.07115173339844,61.37096405029297,-154.98789978027344,-19.043548583984375,6.424925327301025,-2.740811824798584,1.0240819454193115,1.8936535120010376,2.432708501815796
138.2425994873047,58.90034103393555,-155.25640869140625,-18.206953048706055,7.020518779754639,-2.0113677978515625,0.7309149503707886,2.3198421001434326,2.774566650390625
138.850341796875,56.43944549560547,-155.3294677734375,-16.314273834228516,4.562963008880615,-2.6573281288146973,0.9844179153442383,2.615349769592285,2.7322723865509033
138.86900329589844,53.79435348510742,-155.65965270996094,-14.481401443481445,4.283557415008545,-2.898383140563965,0.8907402157783508,2.9004769325256348,2.931384325027466
138.6045684814453,51.24836349487305,-155.92176818847656,-11.8956298828125,3.128200054168701,-3.5007505416870117,0.5873963236808777,2.9732823371887207,3.099781036376953
138.2159423828125,48.85370635986328,-156.00755310058594,-8.508366584777832,-0.3571914732456207,-3.841475486755371,0.20361003279685974,3.0708210468292236,2.9942073822021484
137.6752166748047,46.58109664916992,-156.23541259765625,-6.513704299926758,1.794434666633606,-3.119813919067383,-0.19922006130218506,2.9496712684631348,2.979111909866333
137.34046936035156,44.57312774658203,-156.4542236328125,-4.565915107727051,0.6188536286354065,-2.4569785594940186,-0.2477516382932663,2.8703813552856445,2.8992722034454346
137.05813598632812,42.95668411254883,-156.71835327148438,-2.687042474746704,1.9490258693695068,-2.234464645385742,-0.26909929513931274,2.4870684146881104,2.6520235538482666
136.8754425048828,41.609703063964844,-156.9996795654297,-0.47782930731773376,-0.1425335705280304,-2.9251914024353027,-0.15087437629699707,2.2317988872528076,2.416130542755127
136.47486877441406,40.71251678466797,-157.50135803222656,-0.04204361513257027,2.25781512260437,-2.9187614917755127,-0.11094296723604202,1.7373906373977661,2.1061925888061523
135.9697265625,40.067134857177734,-158.15615844726562,0.2611108124256134,1.6582304239273071,-3.0872299671173096,-0.1588056981563568,1.1882413625717163,1.8683581352233887
135.8148193359375,39.44709014892578,-158.70101928710938,0.547317385673523,2.3046586513519287,-3.083915948867798,-0.08504544198513031,0.7634099125862122,1.6524981260299683
135.9623260498047,38.94199752807617,-158.92385864257812,0.2165367603302002,3.13297963142395,-3.1147122383117676,0.2679899036884308,0.7006590366363525,1.496782660484314
135.81338500976562,38.846153259277344,-159.00439453125,-0.323009192943573,3.6852803230285645,-4.377930164337158,0.1435050666332245,0.501244306564331,0.9843290448188782
135.470458984375,38.844120025634766,-159.21287536621094,-1.084964632987976,2.7342867851257324,-4.899691581726074,-0.05472279712557793,0.24659231305122375,0.7112109065055847
135.37197875976562,39.0048713684082,-159.13233947753906,-1.309366226196289,3.3487935066223145,-5.157345771789551,-0.17660577595233917,0.06005900353193283,0.48237019777297974
135.47303771972656,39.348201751708984,-158.82562255859375,-1.782317042350769,3.9224140644073486,-5.231432914733887,-0.14431031048297882,0.06540678441524506,-0.042510416358709335
135.0601348876953,39.73600387573242,-159.02220153808594,-2.598290205001831,4.673824310302734,-5.697555065155029,-0.20129463076591492,-0.13936054706573486,-0.18888868391513824
134.16209411621094,40.19633483886719,-159.6625518798828,-2.395430564880371,4.202268600463867,-6.006927967071533,-0.45248162746429443,-0.4599780738353729,-0.1390228569507599
132.9939727783203,40.75834655761719,-160.5530548095703,-1.8169872760772705,3.919818162918091,-5.791903018951416,-0.6069315671920776,-0.8499550223350525,-0.018000314012169838
131.70567321777344,41.36985397338867,-161.32054138183594,-1.3084577322006226,3.6614158153533936,-5.351609230041504,-0.8851861953735352,-1.1389895677566528,-0.012532729655504227
130.62738037109375,42.007720947265625,-161.7611846923828,-1.6081210374832153,3.7735931873321533,-4.620172500610352,-1.0982712507247925,-1.1744638681411743,-0.11339274048805237
129.9755096435547,42.82617950439453,-161.93460083007812,-1.80758535861969,4.478893280029297,-3.8782715797424316,-1.1630383729934692,-1.129908800125122,-0.36224809288978577
129.8323516845703,43.914005279541016,-161.9514923095703,-1.9616832733154297,4.883495330810547,-3.3348734378814697,-0.8704952001571655,-1.1427005529403687,-0.6977460980415344
129.79469299316406,45.30759048461914,-161.9084930419922,-1.7203418016433716,4.792850017547607,-3.153080940246582,-0.5220030546188354,-1.2307366132736206,-1.0998127460479736
129.482421875,47.024837493896484,-161.96517944335938,-1.7054415941238403,4.27368688583374,-3.4723732471466064,-0.46601465344429016,-1.4400750398635864,-1.4905588626861572
128.82797241210938,49.01256561279297,-162.12705993652344,-1.3284757137298584,3.1193172931671143,-3.357738733291626,-0.5317755341529846,-1.7606229782104492,-1.8701826333999634
128.07298278808594,51.14363098144531,-162.09620666503906,-1.1841304302215576,2.2179582118988037,-3.559749126434326,-0.8725049495697021,-2.0186545848846436,-2.1900975704193115
127.63267517089844,53.25626754760742,-161.70823669433594,-1.8080039024353027,0.8856121301651001,-3.940758466720581,-1.0251483917236328,-2.0181210041046143,-2.6239538192749023
127.0954360961914,55.26398849487305,-161.6138916015625,-4.652589321136475,1.067440152168274,-3.4825973510742188,-1.141554594039917,-1.9365806579589844,-2.7391765117645264
126.77716064453125,57.3480224609375,-161.66477966308594,-7.129698276519775,1.6614367961883545,-2.799748182296753,-0.954098641872406,-2.1282691955566406,-2.734985113143921
126.7111587524414,59.21513748168945,-161.3555145263672,-9.141058921813965,2.491670846939087,-2.499959707260132,-0.6873831748962402,-2.0448572635650635,-2.870326280593872
126.83402252197266,60.85816955566406,-160.87127685546875,-12.687068939208984,3.9853897094726562,-1.5748077630996704,-0.8383989334106445,-1.822705626487732,-2.636012554168701
128.6864471435547,62.990142822265625,-159.0934600830078,-15.775945663452148,7.154129981994629,-0.44233039021492004,-0.37161606550216675,-1.5891404151916504,-2.7916080951690674
133.2649383544922,65.75558471679688,-154.8691864013672,-16.813112258911133,6.767488479614258,-0.9435052871704102,0.04028991609811783,-1.384999394416809,-3.666297435760498
138.51429748535156,67.69844818115234,-150.44590759277344,-17.920074462890625,5.684783458709717,-0.8267088532447815,0.9616020917892456,-0.984469473361969,-4.845393657684326
137.74171447753906,67.54353332519531,-151.71202087402344,-20.298479080200195,7.066995620727539,-2.9941980838775635,1.2004560232162476,-0.7637892961502075,-3.3425281047821045
135.03939819335938,66.86383819580078,-154.53500366210938,-17.86879539489746,4.12428092956543,-3.716303825378418,0.4404855966567993,-0.6215736865997314,-0.6861421465873718
135.679931640625,67.0107650756836,-154.30624389648438,-13.604782104492188,2.289863109588623,-4.048853874206543,0.5481243133544922,-0.6128062605857849,-0.46250802278518677
137.04664611816406,66.85082244873047,-153.2685546875,-11.975220680236816,1.7001209259033203,-4.1440815925598145,0.6340545415878296,-0.08175209909677505,-0.5121435523033142
137.9148406982422,66.61261749267578,-152.59410095214844,-10.430630683898926,1.604587197303772,-3.858851194381714,0.6310954689979553,0.16384771466255188,-0.2623586356639862
139.0603790283203,66.47714233398438,-151.34478759765625,-8.884442329406738,1.6523370742797852,-3.4185376167297363,0.43224194645881653,0.3753342926502228,-0.30629611015319824
139.9313201904297,66.41633605957031,-150.24005126953125,-8.900625228881836,2.0935399532318115,-3.00052547454834,0.1918761432170868,0.5455963015556335,-0.4434729814529419
140.2823486328125,66.35748291015625,-149.7603759765625,-8.998265266418457,2.1540791988372803,-2.643399953842163,-0.014197099953889847,0.4163619577884674,-0.3742625415325165
140.6366729736328,66.20257568359375,-149.45907592773438,-9.55947208404541,2.6158809661865234,-2.5429329872131348,0.044218674302101135,0.42772534489631653,-0.2562648057937622
140.6803741455078,66.11610412597656,-149.48733520507812,-10.3566255569458,2.9587912559509277,-2.666325807571411,0.07243663817644119,0.3345683515071869,-0.10686671733856201
140.59588623046875,66.08963775634766,-149.581298828125,-10.78665542602539,2.8701889514923096,-3.0980284214019775,0.08681957423686981,0.20028449594974518,-0.03600344806909561
140.41256713867188,65.99312591552734,-149.70974731445312,-10.989542007446289,2.5900778770446777,-3.424884796142578,-0.018726663663983345,0.1312086284160614,0.01223292388021946
140.3597869873047,65.77819061279297,-149.82333374023438,-10.990164756774902,2.632117509841919,-3.520714521408081,-0.0163935124874115,0.14458803832530975,0.13219398260116577
140.46444702148438,65.50920867919922,-149.83657836914062,-10.846508979797363,2.601426362991333,-3.5585474967956543,0.07972551882266998,0.2274474799633026,0.184371218085289
140.4041748046875,65.22644805908203,-149.9683074951172,-10.45730972290039,2.5994415283203125,-3.5047943592071533,0.10054697096347809,0.27676233649253845,0.2569410800933838
140.23341369628906,64.9716796875,-150.17559814453125,-9.996006965637207,2.567145824432373,-3.3822145462036133,0.07587919384241104,0.27360284328460693,0.318453848361969
139.97230529785156,64.73662567138672,-150.4138641357422,-9.353195190429688,2.553881883621216,-3.3485119342803955,0.04807025194168091,0.2515040338039398,0.34274762868881226
139.64002990722656,64.50502014160156,-150.65586853027344,-8.772252082824707,2.58018159866333,-3.263894557952881,-0.05827624350786209,0.22693124413490295,0.3775128424167633
139.31492614746094,64.29479217529297,-150.8802947998047,-8.289144515991211,2.5926640033721924,-3.1096816062927246,-0.09878509491682053,0.21938160061836243,0.3678535521030426
