Roll,Pitch,Yaw,AccX,AccY,AccZ,GyroX,GyroY,GyroZ
-145.7467041015625,-51.101768493652344,103.55281829833984,7.631047248840332,-3.4607508182525635,-5.094420909881592,-0.00042729085544124246,0.005427562166005373,0.0014251098036766052
-145.74925231933594,-51.09918975830078,103.56600189208984,7.633602619171143,-3.4678444862365723,-5.0957255363464355,-0.0027455389499664307,-0.002100318670272827,-0.0031076373998075724
-145.75547790527344,-51.095123291015625,103.58234405517578,7.627570629119873,-3.474999189376831,-5.103062629699707,0.0015443190932273865,-0.0004608184390235692,0.0006960704922676086
-145.74998474121094,-51.09343719482422,103.58696746826172,7.624578475952148,-3.462024688720703,-5.103880882263184,-0.0005621463642455637,0.0010253861546516418,0.0006409361958503723
-145.75082397460938,-51.096153259277344,103.59278869628906,7.646071910858154,-3.4772732257843018,-5.100537300109863,-0.003573670983314514,0.006758235860615969,-0.0009149312973022461
-145.75074768066406,-51.10082244873047,103.59609985351562,7.638503551483154,-3.4644081592559814,-5.094503402709961,-0.004447996616363525,0.006871111690998077,0.0009583309874869883
-145.74913024902344,-51.1007080078125,103.60177612304688,7.63638162612915,-3.454683780670166,-5.085317611694336,-0.0007469208794645965,0.004184059798717499,8.512289059581235e-05
-145.7485809326172,-51.098915100097656,103.61249542236328,7.632428169250488,-3.470338821411133,-5.096246242523193,-0.00028200450469739735,0.0014388933777809143,-0.00011175870895385742
-145.7505645751953,-51.097286224365234,103.62300109863281,7.644173622131348,-3.4747562408447266,-5.099311351776123,-0.0017926099244505167,0.0017886984860524535,-0.0007223337888717651
-145.7495880126953,-51.09800720214844,103.62881469726562,7.639467716217041,-3.4666903018951416,-5.09276819229126,-0.0010203570127487183,0.0050866976380348206,0.001633353647775948
-145.74815368652344,-51.099056243896484,103.63448333740234,7.631263256072998,-3.4572877883911133,-5.0901384353637695,-0.002681091660633683,0.0026555731892585754,-0.001520291087217629
-145.75271606445312,-51.09870529174805,103.64757537841797,7.647563457489014,-3.467796802520752,-5.103146076202393,-0.0006668269052170217,0.0017954034265130758,-0.0013608483131974936
-145.7503662109375,-51.0965690612793,103.65564727783203,7.632914066314697,-3.466752052307129,-5.085019588470459,0.0009527430520392954,0.0006871297955513,0.0015901402803137898
-145.7471923828125,-51.095436096191406,103.66051483154297,7.633963108062744,-3.467465877532959,-5.102173805236816,-0.0016260892152786255,0.0044284388422966,0.0007880852208472788
-145.7493133544922,-51.099708557128906,103.66622924804688,7.640332221984863,-3.466407299041748,-5.10252046585083,-0.005484372843056917,0.006868131458759308,-0.0015854836674407125
-145.7501220703125,-51.10289764404297,103.67095947265625,7.63476037979126,-3.470893144607544,-5.090734958648682,-0.003218278754502535,0.007197075057774782,0.0019313771044835448
-145.7461395263672,-51.101402282714844,103.67584991455078,7.633699417114258,-3.460392475128174,-5.09067964553833,-0.0008169561624526978,0.0023761766497045755,0.0005120411515235901
-145.74977111816406,-51.097171783447266,103.69165802001953,7.635124206542969,-3.473353385925293,-5.09193229675293,0.0006141141057014465,-0.0030547380447387695,-0.0017400832148268819
-145.75169372558594,-51.093727111816406,103.70506286621094,7.649588584899902,-3.4769468307495117,-5.104055404663086,0.001292862114496529,8.847564458847046e-05,0.0004528090648818761
-145.74827575683594,-51.095176696777344,103.7081298828125,7.638564586639404,-3.461223840713501,-5.1071295738220215,-0.0026762487832456827,0.005027465522289276,0.0006115064024925232
-145.74916076660156,-51.100337982177734,103.71060943603516,7.631762504577637,-3.461731195449829,-5.098043441772461,-0.00635683536529541,0.008914806880056858,-0.0005062669515609741
-145.7502899169922,-51.10335922241211,103.71578216552734,7.6391072273254395,-3.467351198196411,-5.084731101989746,-0.003387779463082552,0.005183182656764984,0.00046025970368646085
-145.74749755859375,-51.09946823120117,103.72481536865234,7.637360572814941,-3.464848518371582,-5.088619709014893,0.0020837411284446716,0.00048372897435911,0.001666136085987091
-145.7486114501953,-51.094635009765625,103.73933410644531,7.6394853591918945,-3.466074228286743,-5.103226661682129,0.0001391395926475525,-0.0032883144449442625,-0.002614781493321061
-145.7535400390625,-51.09378433227539,103.75245666503906,7.635112285614014,-3.46942400932312,-5.106907844543457,-0.0009633601875975728,0.0023862349335104227,0.00022966417600400746
-145.74905395507812,-51.096710205078125,103.75244903564453,7.636422157287598,-3.4593238830566406,-5.095484733581543,-0.003190338844433427,0.0064814467914402485,0.001291744178161025
-145.7476043701172,-51.10038375854492,103.7547378540039,7.639984607696533,-3.462886095046997,-5.098392963409424,-0.004227087367326021,0.007733144797384739,0.00023711477115284652
-145.74954223632812,-51.101070404052734,103.76289367675781,7.640303611755371,-3.4726545810699463,-5.0893683433532715,-0.0033970922231674194,0.002609006827697158,-2.1234152882243507e-05
-145.7494354248047,-51.0969352722168,103.7740478515625,7.648293495178223,-3.4659318923950195,-5.0883660316467285,0.0023601576685905457,0.00024829062749631703,0.001232139766216278
-145.7480926513672,-51.09431838989258,103.7848892211914,7.63016939163208,-3.455094337463379,-5.1023736000061035,-0.0008139759884215891,-0.00019967557454947382,-0.001516193151473999
-145.75209045410156,-51.0954704284668,103.7943115234375,7.643813133239746,-3.474630355834961,-5.1003923416137695,-0.0031173231545835733,0.00423770397901535,6.388873589457944e-05
-145.75001525878906,-51.09758758544922,103.79679107666016,7.631982803344727,-3.4677445888519287,-5.091104030609131,-0.002801418537274003,0.004981271922588348,0.0010861081536859274
-145.7476043701172,-51.097530364990234,103.80218505859375,7.639613628387451,-3.4582488536834717,-5.093353271484375,-0.0009279699297621846,0.0037861994933336973,0.0011505561415106058
-145.74850463867188,-51.09672164916992,103.81256866455078,7.638758659362793,-3.4654200077056885,-5.093143939971924,-0.0014737248420715332,0.001549161970615387,-0.001670420286245644
-145.75091552734375,-51.096893310546875,103.82266235351562,7.636749744415283,-3.4643166065216064,-5.092752933502197,-0.002054125303402543,0.004201196134090424,0.0004975125775672495
-145.7478485107422,-51.09837341308594,103.82636260986328,7.639551162719727,-3.456348180770874,-5.097825050354004,-0.0012051316443830729,0.0051392256282269955,1.918524685606826e-05
-145.74778747558594,-51.09941864013672,103.83346557617188,7.63158655166626,-3.467686414718628,-5.087257385253906,-0.003188476199284196,0.004093535244464874,3.445893889875151e-05
-145.75054931640625,-51.098026275634766,103.843505859375,7.643218517303467,-3.468142509460449,-5.094002723693848,-0.0013515354366973042,0.0007798895821906626,-0.0007562339305877686
-145.74899291992188,-51.095176696777344,103.85326385498047,7.638385772705078,-3.4635939598083496,-5.096035480499268,0.0020256265997886658,0.0011222438188269734,0.0017357992473989725
-145.74819946289062,-51.094783782958984,103.86225891113281,7.634213447570801,-3.4625604152679443,-5.104089260101318,-0.0018849970074370503,0.0014783814549446106,-0.0032469630241394043
-145.7507781982422,-51.09843444824219,103.86927795410156,7.638797283172607,-3.479968786239624,-5.098414421081543,-0.0031873583793640137,0.008472242392599583,0.00204015476629138
-145.74583435058594,-51.100975036621094,103.86799621582031,7.626461982727051,-3.454752206802368,-5.088778495788574,-0.003922729752957821,0.005420856177806854,0.00037308785249479115
-145.74810791015625,-51.100154876708984,103.87896728515625,7.638426303863525,-3.4623026847839355,-5.095151424407959,-0.0004671513452194631,0.0029781830962747335,-0.00047050410648807883
-145.74960327148438,-51.097007751464844,103.89226531982422,7.634206295013428,-3.4649715423583984,-5.0923943519592285,-0.00010207296145381406,-0.0023692846298217773,-0.0011179593857377768
-145.74989318847656,-51.09306335449219,103.9032974243164,7.64335823059082,-3.4697980880737305,-5.103668689727783,0.0019712375942617655,0.000782497227191925,0.0015268103452399373
-145.7470245361328,-51.09383773803711,103.90814208984375,7.634838104248047,-3.4607551097869873,-5.105597496032715,-0.0026214870158582926,0.0028992074076086283,-0.0007890164852142334
-145.75051879882812,-51.09799575805664,103.91487884521484,7.6392621994018555,-3.470918893814087,-5.106318473815918,-0.00445730984210968,0.007640757132321596,-0.0008791685104370117
-145.7483673095703,-51.10131072998047,103.91783142089844,7.642662525177002,-3.468472957611084,-5.09403657913208,-0.0025201591197401285,0.006173364818096161,0.0011453402694314718
-145.7462921142578,-51.09995651245117,103.92467498779297,7.643102645874023,-3.4580678939819336,-5.092324256896973,-0.001158192870207131,0.0032333657145500183,0.00011045486462535337
-145.7489776611328,-51.09819793701172,103.93690490722656,7.643980026245117,-3.4676730632781982,-5.095454216003418,-0.0015284866094589233,0.0007407739758491516,-0.0013139097718521953
-145.75108337402344,-51.096290588378906,103.94695281982422,7.632242202758789,-3.4599006175994873,-5.08742618560791,-0.0018097463762387633,0.0014806166291236877,0.0012060628505423665
-145.74810791015625,-51.095458984375,103.95243072509766,7.647010803222656,-3.468234062194824,-5.104165077209473,0.0007985159754753113,0.002614967292174697,0.000331737071974203
-145.74856567382812,-51.096229553222656,103.96179962158203,7.633973598480225,-3.4561662673950195,-5.094550132751465,-0.0027902431320399046,0.0021433457732200623,-0.0013727698242291808
-145.75137329101562,-51.096641540527344,103.97042846679688,7.642886161804199,-3.4737548828125,-5.098946571350098,-0.001734495279379189,0.0036532061640173197,0.0004863366484642029
-145.74786376953125,-51.096923828125,103.97449493408203,7.630312442779541,-3.459341049194336,-5.098901748657227,-0.0014901162358000875,0.0042846426367759705,0.0011576340766623616
-145.74864196777344,-51.09832763671875,103.98139190673828,7.649379730224609,-3.4618794918060303,-5.1035003662109375,-0.004362314939498901,0.005075894761830568,-0.0012971461983397603
-145.75111389160156,-51.10009765625,103.98855590820312,7.633227348327637,-3.4695870876312256,-5.097582817077637,-0.0038199133705347776,0.005291961133480072,0.001230277237482369
-145.74859619140625,-51.09850311279297,103.99507141113281,7.640546798706055,-3.4678525924682617,-5.094484329223633,0.0005861744284629822,0.001401267945766449,0.0001614913489902392
-145.7491912841797,-51.09575653076172,104.00782012939453,7.631227493286133,-3.465590715408325,-5.09363317489624,-0.00024735924671404064,-2.4586915969848633e-05,-0.00080019241431728
-145.75254821777344,-51.094234466552734,104.0192642211914,7.646208763122559,-3.467843770980835,-5.10432243347168,-0.0016015025321394205,8.884818089427426e-05,-0.0009078534203581512
-145.75135803222656,-51.09415817260742,104.02571105957031,7.629376411437988,-3.465914011001587,-5.0963873863220215,7.3947012424469e-05,0.0037213789764791727,0.0013446435332298279
-145.74925231933594,-51.09578323364258,104.03107452392578,7.634504318237305,-3.4614853858947754,-5.100113391876221,-0.002825632691383362,0.0033041462302207947,-0.0017136336537078023
-145.7525177001953,-51.09755325317383,104.03988647460938,7.636867523193359,-3.4688658714294434,-5.089940071105957,-0.002979859709739685,0.005474873352795839,0.00036116689443588257
-145.74952697753906,-51.0976448059082,104.04399108886719,7.636328220367432,-3.4731051921844482,-5.0894060134887695,-0.0011324881343171,0.003357045352458954,0.0010965391993522644
-145.7484588623047,-51.09606170654297,104.05261993408203,7.6352715492248535,-3.4587316513061523,-5.094438076019287,-0.00040158635238185525,0.0024573879782110453,1.9185245037078857e-05
-145.75083923339844,-51.09611511230469,104.06290435791016,7.64316463470459,-3.4781665802001953,-5.098825454711914,-0.003018602728843689,0.0025449320673942566,-0.0012919307919219136
-145.7520294189453,-51.09674072265625,104.06986236572266,7.640314102172852,-3.4699180126190186,-5.097875118255615,-0.0021345908753573895,0.0044418503530323505,0.0013938171323388815
-145.74896240234375,-51.09712600708008,104.0740966796875,7.644650459289551,-3.464221954345703,-5.097444534301758,-0.0019058588659390807,0.003961287438869476,9.853394294623286e-05
-145.75186157226562,-51.09756851196289,104.08515930175781,7.633533954620361,-3.4652836322784424,-5.087626934051514,-0.0023633241653442383,0.002230890328064561,-0.0021692365407943726
-145.75299072265625,-51.096031188964844,104.09574890136719,7.645259857177734,-3.47133731842041,-5.0981574058532715,0.0007497146725654602,0.000914745032787323,0.0012008474441245198
-145.74867248535156,-51.093360900878906,104.1015396118164,7.620687961578369,-3.4620776176452637,-5.096746444702148,0.000150315448991023,0.0017957761883735657,0.0010205431608483195
-145.7498016357422,-51.09585952758789,104.10858917236328,7.639563083648682,-3.4690372943878174,-5.098740100860596,-0.0039104376919567585,0.0063301995396614075,-0.001683458685874939
-145.7510528564453,-51.10081481933594,104.11272430419922,7.632543087005615,-3.476475238800049,-5.092724323272705,-0.004610419739037752,0.00792425125837326,0.0011062250705435872
-145.7477264404297,-51.10132598876953,104.11566162109375,7.641911506652832,-3.459970712661743,-5.087259769439697,-0.0016435981960967183,0.00530164735391736,0.0010712069924920797
-145.74957275390625,-51.09916687011719,104.12796020507812,7.628841876983643,-3.4528896808624268,-5.097526550292969,-0.0016078356420621276,-0.00013224780559539795,-0.0019889327231794596
-145.7523193359375,-51.09526443481445,104.14225769042969,7.6463446617126465,-3.4805729389190674,-5.093820095062256,0.0024737792555242777,-0.0011410564184188843,0.0009452924132347107
-145.74862670898438,-51.09193801879883,104.15045166015625,7.629867076873779,-3.4606716632843018,-5.0985002517700195,0.0013543294044211507,-0.0009562820196151733,-9.760261309565976e-05
-145.7501983642578,-51.0943717956543,104.15794372558594,7.641278266906738,-3.4743130207061768,-5.112262725830078,-0.0035624955780804157,0.006662123836576939,-0.0011295081349089742
-145.75242614746094,-51.10110092163086,104.16011047363281,7.633301734924316,-3.4682981967926025,-5.090360164642334,-0.00813603401184082,0.008712898008525372,-0.0005181879969313741
-145.75094604492188,-51.10335922241211,104.16329193115234,7.643833637237549,-3.4585654735565186,-5.084437847137451,-0.0006429851637221873,0.0071419402956962585,0.0012842938303947449
-145.74716186523438,-51.10024642944336,104.17291259765625,7.626821041107178,-3.4541778564453125,-5.088471412658691,7.208437455119565e-05,-0.0009525568457320333,-0.00045076015521772206
-145.75225830078125,-51.09474182128906,104.18963623046875,7.647639274597168,-3.4763171672821045,-5.099438190460205,0.0009680168004706502,-0.002210959792137146,-0.0010140241356566548
-145.7516632080078,-51.09324264526367,104.19778442382812,7.6286702156066895,-3.4625039100646973,-5.102290153503418,-0.0008769333944655955,0.0020170584321022034,0.0016575680347159505
-145.74989318847656,-51.095611572265625,104.20052337646484,7.64230489730835,-3.4617624282836914,-5.100233554840088,-0.0034965574741363525,0.0053906817920506,-0.0004529953293967992
-145.7518310546875,-51.099281311035156,104.20684051513672,7.635571002960205,-3.4673750400543213,-5.088533401489258,-0.00426732050254941,0.005977414548397064,-0.00020265580678824335
-145.75064086914062,-51.09855270385742,104.21350860595703,7.642939567565918,-3.4714303016662598,-5.093665599822998,-0.00020749868417624384,0.0021794813219457865,0.0014135614037513733
-145.7489776611328,-51.09476852416992,104.22377014160156,7.632909774780273,-3.4559547901153564,-5.098539352416992,0.0006543472409248352,-6.295741331996396e-05,-0.00020451843738555908
-145.75193786621094,-51.09462356567383,104.2349624633789,7.637056827545166,-3.47451114654541,-5.1091837882995605,-0.002948567271232605,0.0030772762838751078,-0.0013671816559508443
-145.7523651123047,-51.0982551574707,104.23844146728516,7.638725757598877,-3.4644052982330322,-5.088536262512207,-0.004532561171799898,0.00785086303949356,0.0014470891328528523
-145.74932861328125,-51.10011291503906,104.2409896850586,7.637323379516602,-3.464160919189453,-5.09025764465332,-0.0017620624275878072,0.0042686243541538715,6.0908496379852295e-05
-145.7511444091797,-51.09737777709961,104.25438690185547,7.637624263763428,-3.4682796001434326,-5.0916852951049805,0.00015627594257239252,-0.0007729977369308472,-0.001062825438566506
-145.75384521484375,-51.09271240234375,104.2686538696289,7.626107215881348,-3.4666314125061035,-5.106348037719727,0.0005951151833869517,-0.0025406479835510254,-0.00022016465663909912
-145.7529296875,-51.09128189086914,104.27666473388672,7.636353492736816,-3.4667105674743652,-5.103288650512695,-7.152557373046875e-05,0.0027017665561288595,0.00031832599779590964
-145.7510528564453,-51.09607696533203,104.27855682373047,7.629895210266113,-3.456329584121704,-5.104401588439941,-0.005590543616563082,0.00842753890901804,5.494803190231323e-05
-145.75254821777344,-51.101051330566406,104.28148651123047,7.640451431274414,-3.4741275310516357,-5.089503288269043,-0.0052474443800747395,0.007539428770542145,-0.0002671033435035497
-145.7500762939453,-51.099449157714844,104.2883529663086,7.635272979736328,-3.4703261852264404,-5.082317352294922,0.0011721625924110413,0.002326257759705186,0.00266525917686522
-145.74948120117188,-51.09347915649414,104.30191040039062,7.63702392578125,-3.4719505310058594,-5.099025249481201,0.0009378418908454478,-0.003821775782853365,-0.002369657391682267
-145.7561798095703,-51.091739654541016,104.31817626953125,7.642580509185791,-3.4752755165100098,-5.107097148895264,-0.0014763325452804565,0.0014709306415170431,-0.001006573555059731
-145.75392150878906,-51.095252990722656,104.31932830810547,7.634195804595947,-3.457087993621826,-5.103726863861084,-0.0042010098695755005,0.00703241815790534,0.0011803582310676575
-145.74978637695312,-51.09952926635742,104.31858825683594,7.6382341384887695,-3.456967353820801,-5.087499141693115,-0.003201514482498169,0.008966960944235325,0.001272372785024345
-145.75144958496094,-51.09918975830078,104.3283920288086,7.6360626220703125,-3.464794874191284,-5.087916374206543,-0.002666190266609192,-0.0005636364803649485,-0.0016491860151290894
-145.7534637451172,-51.092918395996094,104.34384155273438,7.642686367034912,-3.4792959690093994,-5.0922064781188965,0.00479500787332654,-0.0011298806639388204,0.002101622521877289
-145.7496337890625,-51.089378356933594,104.35237884521484,7.634028911590576,-3.4434735774993896,-5.104616165161133,-0.0012777745723724365,-0.0018846244784072042,-0.0010166317224502563
-145.75376892089844,-51.09306335449219,104.35858154296875,7.649916648864746,-3.46829891204834,-5.107858657836914,-0.004846230614930391,0.010186620056629181,0.0008912758203223348
-145.74957275390625,-51.10049057006836,104.35498046875,7.638148784637451,-3.464707851409912,-5.087459564208984,-0.006102398037910461,0.008772500790655613,0.0010637566447257996
-145.748779296875,-51.099796295166016,104.36195373535156,7.641941070556641,-3.4607431888580322,-5.088204383850098,9.872020200418774e-06,0.003973953891545534,0.0011941418051719666
-145.75035095214844,-51.09476852416992,104.37779235839844,7.637871742248535,-3.461939811706543,-5.093851566314697,0.0005101785063743591,-0.0042509292252361774,-0.0025138258934020996
-145.7539520263672,-51.09072494506836,104.3926010131836,7.63267707824707,-3.4770050048828125,-5.094501972198486,0.0012194737792015076,0.001193396863527596,0.0012679026694968343
-145.7500762939453,-51.09284591674805,104.39485168457031,7.6315016746521,-3.4488677978515625,-5.106095790863037,-0.002973899245262146,0.004100986290723085,-0.0009022653102874756
-145.75230407714844,-51.09693908691406,104.40078735351562,7.637570858001709,-3.466676950454712,-5.101146697998047,-0.003773719072341919,0.007302127778530121,-0.0002268701937282458
-145.75250244140625,-51.09774398803711,104.40715026855469,7.638078689575195,-3.4627647399902344,-5.091860294342041,-0.0030137598514556885,0.00195708149112761,-0.00021532177925109863
-145.75279235839844,-51.09373092651367,104.41838073730469,7.636684417724609,-3.465043783187866,-5.092318534851074,0.0018989669624716043,0.0005247071967460215,0.0007526950794272125
-145.751220703125,-51.09202194213867,104.42829132080078,7.640560150146484,-3.461430311203003,-5.1032586097717285,-0.0008113683434203267,0.0007795171695761383,-0.001274794340133667
-145.75445556640625,-51.094512939453125,104.43558502197266,7.6386871337890625,-3.476022243499756,-5.106945991516113,-0.005157292354851961,0.0067694117315113544,2.421438694000244e-06
-145.75218200683594,-51.09861373901367,104.43492126464844,7.64456844329834,-3.4638564586639404,-5.089191913604736,-0.0047065322287380695,0.008240528404712677,0.002328492933884263
-145.74981689453125,-51.0978889465332,104.44038391113281,7.630924701690674,-3.459472894668579,-5.088303089141846,-0.0010251998901367188,0.0020591544453054667,0.0004673376970458776
-145.7529296875,-51.09305191040039,104.45716857910156,7.639509201049805,-3.4800097942352295,-5.098479270935059,0.0015834346413612366,-0.0032074751798063517,-0.0016164034605026245
-145.75433349609375,-51.08879089355469,104.47069549560547,7.626600742340088,-3.466529369354248,-5.096886157989502,0.001182593172416091,-0.0013660637196153402,0.0010175631614401937
-145.75350952148438,-51.09031677246094,104.47577667236328,7.6375322341918945,-3.458935022354126,-5.1100873947143555,-0.0033792108297348022,0.005164929199963808,-0.0017173588275909424
-145.7545166015625,-51.09709167480469,104.4780044555664,7.626010417938232,-3.4582278728485107,-5.089189052581787,-0.006278976798057556,0.009784662164747715,0.0010916964383795857
-145.75172424316406,-51.09886932373047,104.47966766357422,7.652801513671875,-3.471616744995117,-5.088529586791992,-0.002055615419521928,0.00485982745885849,0.0009419397101737559
-145.7497100830078,-51.09450149536133,104.49073028564453,7.6315598487854,-3.4589409828186035,-5.095952987670898,0.002175755798816681,-0.00028423964977264404,0.001432933029718697
-145.75265502929688,-51.09095001220703,104.50525665283203,7.6408162117004395,-3.4710094928741455,-5.1041765213012695,-0.0017434362089261413,-0.0010602178517729044,-0.0031478710006922483
-145.7566375732422,-51.09371566772461,104.51325988769531,7.626946449279785,-3.4646220207214355,-5.094327926635742,-0.004271418321877718,0.007771513424813747,0.0016110017895698547
-145.7496337890625,-51.09815216064453,104.50926971435547,7.637937545776367,-3.463587999343872,-5.095513343811035,-0.002777576446533203,0.007951074279844761,0.0015163794159889221
-145.7497100830078,-51.098167419433594,104.51847076416016,7.633505821228027,-3.4578003883361816,-5.087563991546631,-0.0012442468432709575,0.0020762907806783915,-0.001225993037223816
-145.75515747070312,-51.093299865722656,104.53663635253906,7.646595001220703,-3.4772112369537354,-5.097649097442627,0.0015011057257652283,-0.004397333133965731,-0.0019192695617675781
-145.7549591064453,-51.08807373046875,104.54864501953125,7.618127822875977,-3.4578092098236084,-5.098877906799316,0.0018158928724005818,-0.0005707144737243652,0.001930631697177887
-145.75228881835938,-51.090694427490234,104.55052185058594,7.642682075500488,-3.465604066848755,-5.109792709350586,-0.005245954729616642,0.00674482574686408,-0.001099705696105957
-145.7547149658203,-51.09949493408203,104.551513671875,7.631528377532959,-3.4759328365325928,-5.084359645843506,-0.007922203280031681,0.012669713236391544,0.000494346022605896
-145.7523193359375,-51.10248947143555,104.553466796875,7.64169979095459,-3.458164691925049,-5.077889919281006,-0.0025924297515302896,0.005106441676616669,0.0006953254924155772
-145.7532958984375,-51.095916748046875,104.56900787353516,7.628382682800293,-3.457237720489502,-5.0781049728393555,0.0019447881495580077,-0.0035837297327816486,-0.0008132309885695577
-145.7572021484375,-51.0885124206543,104.58776092529297,7.644191265106201,-3.471111536026001,-5.10455846786499,0.0019995495676994324,-0.005649404134601355,-0.0011891128960996866
-145.75613403320312,-51.086978912353516,104.59539794921875,7.6296610832214355,-3.470151901245117,-5.103686332702637,0.00010933729208773002,0.0030351809691637754,0.001952983671799302
-145.7521209716797,-51.092506408691406,104.59390258789062,7.640792369842529,-3.4720077514648438,-5.107885360717773,-0.005282089579850435,0.008171983063220978,-0.00019893051648978144
-145.7556915283203,-51.09947204589844,104.59761047363281,7.634507179260254,-3.4654691219329834,-5.0894999504089355,-0.007906557060778141,0.010509977117180824,-0.0010374935809522867
-145.7553253173828,-51.10074234008789,104.60393524169922,7.648259162902832,-3.473747491836548,-5.085415363311768,-0.00023767352104187012,0.003527663880959153,0.00086221843957901
-145.75213623046875,-51.09404754638672,104.61726379394531,7.628445148468018,-3.458320379257202,-5.091309547424316,0.0038368627429008484,-0.0029899179935455322,-0.00038109716842882335
-145.75509643554688,-51.08925247192383,104.63282012939453,7.636509895324707,-3.4701764583587646,-5.1035614013671875,-0.00017024576663970947,-0.0020701440516859293,-0.0011302530765533447
-145.7575225830078,-51.090641021728516,104.6385269165039,7.630437850952148,-3.4620895385742188,-5.101517677307129,-0.0046033416874706745,0.005480088293552399,0.0012187287211418152
-145.7535858154297,-51.09553146362305,104.63690185546875,7.641483783721924,-3.47212553024292,-5.1005473136901855,-0.003029405605047941,0.008407422341406345,0.0013122332748025656
-145.75341796875,-51.097530364990234,104.64457702636719,7.627849102020264,-3.4553780555725098,-5.08868408203125,-0.00299699604511261,0.003193505574017763,-0.0019654633942991495
-145.75685119628906,-51.094120025634766,104.65922546386719,7.649979114532471,-3.481302499771118,-5.101507186889648,0.001758150989189744,-0.000864267407450825,0.0003555789589881897
-145.75331115722656,-51.090087890625,104.66744995117188,7.624950885772705,-3.463038921356201,-5.10459566116333,0.0004841015615966171,0.0011024998966604471,0.0012004747986793518
-145.75332641601562,-51.0927734375,104.67234802246094,7.646143436431885,-3.4600391387939453,-5.104610919952393,-0.004213675856590271,0.006848388817161322,-0.0009037555428221822
-145.7540283203125,-51.098487854003906,104.67449188232422,7.635650157928467,-3.46909236907959,-5.087096214294434,-0.005716830492019653,0.009067542850971222,0.0015521423192694783
-145.7510986328125,-51.098419189453125,104.67837524414062,7.639895439147949,-3.4747190475463867,-5.085744857788086,-0.00025555494357831776,0.0032057985663414,0.0011092053027823567
-145.75289916992188,-51.093013763427734,104.69418334960938,7.632818698883057,-3.456625461578369,-5.08955192565918,0.0007821246981620789,-0.003795698983594775,-0.0015672299778088927
-145.75775146484375,-51.08882522583008,104.7108383178711,7.641580581665039,-3.464674234390259,-5.107964515686035,0.0009687618003226817,-0.0013940036296844482,-0.0012744219275191426
-145.7560577392578,-51.09070587158203,104.71569061279297,7.637211799621582,-3.4618728160858154,-5.093050956726074,-0.0027373433113098145,0.005283020436763763,0.00048521909047849476
-145.7537841796875,-51.095481872558594,104.71500396728516,7.638436317443848,-3.4641339778900146,-5.098599433898926,-0.005359201692044735,0.008515828289091587,0.0011825934052467346
-145.75570678710938,-51.09805679321289,104.72062683105469,7.638017654418945,-3.465125799179077,-5.088757514953613,-0.005234777927398682,0.004956312943249941,-0.0012934209080412984
-145.7557373046875,-51.095855712890625,104.73174285888672,7.642750263214111,-3.4746482372283936,-5.087259292602539,0.00280085951089859,0.0014165417524054646,0.0015841799322515726
-145.75233459472656,-51.09077072143555,104.7431869506836,7.634374618530273,-3.4606733322143555,-5.10540246963501,0.0013386831851676106,-0.0028997662011533976,-0.0012390315532684326
-145.7572479248047,-51.09033966064453,104.7554931640625,7.640974044799805,-3.4740567207336426,-5.1084818840026855,-0.0025145711842924356,0.004022754728794098,-0.0008948149043135345
-145.75634765625,-51.09490966796875,104.75647735595703,7.639752388000488,-3.462991952896118,-5.098333835601807,-0.0053506349213421345,0.006914697587490082,0.0012734904885292053
-145.75372314453125,-51.097190856933594,104.75787353515625,7.644608497619629,-3.457089424133301,-5.08828067779541,-0.002799183363094926,0.007515214383602142,0.0013494862942025065
-145.7551727294922,-51.096168518066406,104.76893615722656,7.635858535766602,-3.460489273071289,-5.090608596801758,-0.002177804708480835,-0.0009927896317094564,-0.0020783396903425455
-145.75921630859375,-51.090824127197266,104.78497314453125,7.62877893447876,-3.472095012664795,-5.0965728759765625,0.0020069999154657125,-0.0012267378624528646,0.0011475755600258708
-145.75604248046875,-51.087806701660156,104.79302978515625,7.622525215148926,-3.4595444202423096,-5.1075921058654785,0.00014659018779639155,-0.0011444091796875,-0.0005453824996948242
-145.75738525390625,-51.09062957763672,104.7996826171875,7.64008903503418,-3.473567247390747,-5.107680320739746,-0.0035472216550260782,0.007810257375240326,-6.183982623042539e-05
-145.75685119628906,-51.096866607666016,104.79999542236328,7.638202667236328,-3.473985195159912,-5.090001583099365,-0.0070679932832717896,0.007777474820613861,0.00011008233559550717
-145.75669860839844,-51.09718704223633,104.80517578125,7.638166904449463,-3.4596590995788574,-5.084202289581299,-0.0012934209080412984,0.005216337740421295,0.0018326566787436604
-145.75570678710938,-51.093204498291016,104.8173599243164,7.63873291015625,-3.457056760787964,-5.094985485076904,0.0003973022394347936,-0.002808123826980591,-0.0018376857042312622
-145.7593536376953,-51.088905334472656,104.8328857421875,7.63939905166626,-3.4661636352539062,-5.103298187255859,0.0009192154393531382,0.0001775100827217102,0.0008517875685356557
-145.75572204589844,-51.089176177978516,104.83638000488281,7.628196716308594,-3.4624359607696533,-5.101390361785889,-0.0015456231776624918,0.003185681998729706,0.0009080395684577525
-145.7562713623047,-51.09282684326172,104.84049224853516,7.6403303146362305,-3.4638664722442627,-5.105454444885254,-0.005011260509490967,0.007647462654858828,-0.00036694109439849854
-145.75857543945312,-51.096923828125,104.84567260742188,7.635438442230225,-3.4636988639831543,-5.0928053855896,-0.005644559860229492,0.006155111361294985,-0.00043325129081495106
-145.75753784179688,-51.0948371887207,104.85403442382812,7.653212547302246,-3.46516752243042,-5.0944013595581055,0.001675821840763092,0.0012082980247214437,0.0015778467059135437
-145.7551727294922,-51.089229583740234,104.8667221069336,7.630888938903809,-3.45805287361145,-5.097296714782715,0.001939572743140161,-0.003030524356290698,-0.0009838491678237915
-145.75917053222656,-51.08760070800781,104.87993621826172,7.63650369644165,-3.467890739440918,-5.107547760009766,-0.0014111398486420512,0.0016322359442710876,-0.0008057803497649729
-145.75830078125,-51.091773986816406,104.88211822509766,7.634316444396973,-3.465796947479248,-5.096784591674805,-0.004282594192773104,0.00798981636762619,0.0007754191756248474
-145.75465393066406,-51.09641647338867,104.88098907470703,7.6356306076049805,-3.457313060760498,-5.084742069244385,-0.004401430953294039,0.008930079638957977,0.0019030648982152343
-145.75587463378906,-51.096378326416016,104.89015197753906,7.648621559143066,-3.4633419513702393,-5.09237813949585,-0.0016711653443053365,0.0012805686565116048,-0.0023715198040008545
-145.75820922851562,-51.090797424316406,104.90707397460938,7.638751029968262,-3.4776158332824707,-5.091355800628662,0.00406336085870862,-0.002925097942352295,0.0014325605006888509
-145.75521850585938,-51.08498001098633,104.91746520996094,7.635067462921143,-3.4575023651123047,-5.117378234863281,0.001512654242105782,-0.0026848167181015015,-0.0004954636096954346
-145.7579345703125,-51.08775329589844,104.92472839355469,7.634399890899658,-3.4634313583374023,-5.100628852844238,-0.004437193274497986,0.007207134272903204,-0.00035837292671203613
-145.75772094726562,-51.09556579589844,104.92401123046875,7.642388343811035,-3.4680590629577637,-5.0947585105896,-0.006769225466996431,0.00972841028124094,-0.00011026859283447266
-145.755615234375,-51.09849166870117,104.92696380615234,7.63986873626709,-3.4605906009674072,-5.084656238555908,-0.0021088868379592896,0.007761084940284491,0.0012269243597984314
-145.7548065185547,-51.095516204833984,104.93824005126953,7.639731407165527,-3.4565911293029785,-5.09243106842041,-2.7194620997761376e-05,-0.0013306736946105957,-0.0016391279641538858
-145.7600860595703,-51.08931350708008,104.95677185058594,7.6372785568237305,-3.464045286178589,-5.100835800170898,0.0017376614268869162,-0.0033847989980131388,-0.0008191913366317749
-145.75819396972656,-51.08684539794922,104.96548461914062,7.63377571105957,-3.4683480262756348,-5.1109724044799805,0.0012373552890494466,0.0010861085029318929,0.0007508322596549988
-145.75584411621094,-51.09015655517578,104.96798706054688,7.627832889556885,-3.4617178440093994,-5.10125732421875,-0.004073604941368103,0.006612576078623533,-9.723007678985596e-05
-145.75843811035156,-51.09549331665039,104.97142028808594,7.641498565673828,-3.4720494747161865,-5.096045970916748,-0.006658585276454687,0.007966719567775726,-0.00045783823588863015
-145.75753784179688,-51.0969352722168,104.97559356689453,7.633540153503418,-3.472372055053711,-5.081247329711914,-0.002297386759892106,0.006133131682872772,0.002184696728363633
-145.7541961669922,-51.093544006347656,104.9841537475586,7.641915798187256,-3.46231746673584,-5.09466552734375,0.000973232090473175,-0.00044517219066619873,-6.780029070796445e-05
-145.75860595703125,-51.089576721191406,104.99993896484375,7.6376872062683105,-3.4728758335113525,-5.102340221405029,-0.0015985220670700073,-0.0009577723103575408,-0.0011283904314041138
-145.76083374023438,-51.08970642089844,105.00884246826172,7.643774032592773,-3.4742846488952637,-5.102155685424805,-0.0013168901205062866,0.003114529186859727,-0.00011883676779689267
-145.7568359375,-51.092281341552734,105.01119232177734,7.6224846839904785,-3.4558422565460205,-5.098499774932861,-0.00227317214012146,0.006164052058011293,0.0013792887330055237
-145.7577667236328,-51.09431076049805,105.017822265625,7.644008159637451,-3.473079204559326,-5.102557182312012,-0.003739074105396867,0.003647618228569627,-0.0024925917387008667
-145.7600555419922,-51.09347915649414,105.0284423828125,7.638913154602051,-3.4606270790100098,-5.090871810913086,-0.00021867455507162958,0.0027080997824668884,0.0020900743547827005
-145.75616455078125,-51.090110778808594,105.0347671508789,7.64459228515625,-3.4603960514068604,-5.102903842926025,-0.0002626329951453954,0.00010412187839392573,3.110617399215698e-05
-145.75799560546875,-51.08987045288086,105.04450988769531,7.631203651428223,-3.4604787826538086,-5.098425388336182,-0.0020176172256469727,0.004126318264752626,0.00048708170652389526
-145.75765991210938,-51.092288970947266,105.04903411865234,7.648266792297363,-3.482217311859131,-5.102006435394287,-0.0036384910345077515,0.004645995795726776,0.00010039659537142143
-145.75570678710938,-51.09355926513672,105.05354309082031,7.631137847900391,-3.4627578258514404,-5.093721389770508,-0.0009700657683424652,0.006482192315161228,0.002079643541947007
-145.75628662109375,-51.09381866455078,105.06282806396484,7.640783309936523,-3.459404468536377,-5.09589147567749,-0.0031657516956329346,0.0006707385764457285,-0.0036001207772642374
-145.7616424560547,-51.09237289428711,105.07768249511719,7.634039402008057,-3.469944715499878,-5.097990989685059,0.0008786098915152252,0.00249277800321579,0.0006770715699531138
-145.75662231445312,-51.090274810791016,105.08283233642578,7.631270408630371,-3.458740472793579,-5.095238208770752,-0.0003788620524574071,-7.040799391688779e-05,0.00013094395399093628
-145.75765991210938,-51.089393615722656,105.09113311767578,7.634572505950928,-3.469386577606201,-5.1060967445373535,-0.0013943759258836508,0.004078634548932314,0.0008976086974143982
-145.7579803466797,-51.09162521362305,105.0960693359375,7.640524387359619,-3.474978446960449,-5.103517532348633,-0.004952027928084135,0.0039635226130485535,-0.0003937631845474243
-145.75872802734375,-51.092803955078125,105.10227966308594,7.632547378540039,-3.4635214805603027,-5.088192939758301,-0.001415610546246171,0.005869754124432802,0.001532398397102952
-145.75669860839844,-51.09264373779297,105.11031341552734,7.6438469886779785,-3.4653820991516113,-5.100080966949463,-0.0012207776308059692,0.0008141621947288513,-0.0020161273423582315
-145.76058959960938,-51.09099197387695,105.12359619140625,7.630650520324707,-3.4672470092773438,-5.099128723144531,-0.00101253401953727,0.002424977719783783,0.00016484411025885493
-145.75784301757812,-51.09015655517578,105.12830352783203,7.644867897033691,-3.4705824851989746,-5.095435619354248,-0.0011384488316252828,0.002212636172771454,0.0013945624232292175
-145.75657653808594,-51.09084701538086,105.1332015991211,7.632890224456787,-3.4540340900421143,-5.102293491363525,-0.003141910070553422,0.006122700870037079,0.0006770715699531138
-145.7585906982422,-51.09450149536133,105.13951873779297,7.639776229858398,-3.4645981788635254,-5.092344284057617,-0.005031004548072815,0.0053511932492256165,-0.0015549362869933248
-145.75848388671875,-51.094512939453125,105.14701080322266,7.628623962402344,-3.4740023612976074,-5.09276008605957,0.0001395121362293139,0.0041252002120018005,0.0024667012039572
-145.755615234375,-51.09018325805664,105.15696716308594,7.640563011169434,-3.4630045890808105,-5.104381084442139,0.0012585894437506795,-0.0032301992177963257,-0.0017914921045303345
-145.76084899902344,-51.08686828613281,105.1736068725586,7.632928848266602,-3.470665216445923,-5.1050262451171875,0.00022184103727340698,0.00019390137458685786,-0.0005397945642471313
-145.76019287109375,-51.08880615234375,105.1781234741211,7.6421918869018555,-3.471343994140625,-5.099981784820557,-0.0037960712797939777,0.004537589848041534,-0.00020228330686222762
-145.7584686279297,-51.09303665161133,105.17908477783203,7.634681701660156,-3.4543871879577637,-5.094392776489258,-0.0037804252933710814,0.009104795753955841,0.0016698617255315185
-145.7568817138672,-51.095706939697266,105.18286895751953,7.640969753265381,-3.4641101360321045,-5.087863445281982,-0.004228950012475252,0.004892982542514801,-0.0009026379557326436
-145.76025390625,-51.09328079223633,105.19568634033203,7.631641387939453,-3.4575729370117188,-5.080728054046631,-0.00013187527656555176,0.0007053837762214243,0.00036228448152542114
-145.7568817138672,-51.08809280395508,105.20582580566406,7.6349778175354,-3.468257188796997,-5.096020698547363,0.003439374500885606,-0.0015880913706496358,0.0016881152987480164
-145.75750732421875,-51.086246490478516,105.21686553955078,7.633780002593994,-3.4582762718200684,-5.106193542480469,-0.0017877668142318726,0.0007210299954749644,-0.002507120370864868
-145.76190185546875,-51.0904426574707,105.22415924072266,7.650251865386963,-3.4709527492523193,-5.103436470031738,-0.004653260577470064,0.00713299959897995,0.0004800036549568176
-145.75759887695312,-51.093692779541016,105.2226791381836,7.638217449188232,-3.454573392868042,-5.090362548828125,-0.003741309279575944,0.007140450179576874,0.002203695708885789
-145.7562713623047,-51.09343719482422,105.22987365722656,7.646606922149658,-3.4669973850250244,-5.0957865715026855,-0.0009357930975966156,0.0030649832915514708,-0.0009600074263289571
-145.7601776123047,-51.090702056884766,105.244873046875,7.638462066650391,-3.468026876449585,-5.0924763679504395,-0.0013377517461776733,-0.0011723489733412862,-0.0007256865501403809
-145.75978088378906,-51.08821487426758,105.25286865234375,7.641001224517822,-3.4757046699523926,-5.099514961242676,-0.00015683470701333135,0.0036103646270930767,0.002020410727709532
-145.7576904296875,-51.090579986572266,105.25715637207031,7.632146835327148,-3.4546866416931152,-5.099999904632568,-0.0038366771768778563,0.003921426832675934,-0.001943484297953546
-145.76132202148438,-51.09302520751953,105.26622772216797,7.64747428894043,-3.4707694053649902,-5.096120357513428,-0.002478435868397355,0.005555339623242617,0.00036675482988357544
-145.75836181640625,-51.09127426147461,105.27290344238281,7.635651588439941,-3.4704856872558594,-5.0881547927856445,0.0008160248398780823,-0.0003546476655174047,0.00037942081689834595
-145.75772094726562,-51.087181091308594,105.28536224365234,7.636460781097412,-3.4726455211639404,-5.113122463226318,0.0026283785700798035,0.00024270267749670893,-0.0002533197693992406
-145.75868225097656,-51.088470458984375,105.29458618164062,7.63545036315918,-3.4689812660217285,-5.108491897583008,-0.0030785799026489258,0.0034434727858752012,-0.0019606202840805054
-145.75982666015625,-51.09278869628906,105.29772186279297,7.644514560699463,-3.4727261066436768,-5.098237991333008,-0.004187971819192171,0.009047425352036953,0.0016847625374794006
-145.7555389404297,-51.09587478637695,105.29667663574219,7.632641315460205,-3.4574851989746094,-5.08967399597168,-0.004910304676741362,0.007410161197185516,0.0013014300493523479
-145.7584991455078,-51.09444808959961,105.3080062866211,7.640461444854736,-3.4689135551452637,-5.091776371002197,-0.0011697412701323628,0.0005049630999565125,-0.0014755874872207642
-145.76165771484375,-51.088687896728516,105.3259048461914,7.636587142944336,-3.472872018814087,-5.098259449005127,0.0029580669943243265,-0.004544109106063843,-0.0007834287243895233
-145.75978088378906,-51.08345031738281,105.33735656738281,7.632495403289795,-3.467925548553467,-5.103650093078613,0.0026179482229053974,-0.0016853215638548136,0.001090951613150537
-145.75808715820312,-51.08616638183594,105.34075164794922,7.631978511810303,-3.4587814807891846,-5.110927104949951,-0.004221871495246887,0.006894581485539675,-0.000589713454246521
-145.75949096679688,-51.09425735473633,105.34089660644531,7.640848159790039,-3.4627556800842285,-5.093304634094238,-0.007519871462136507,0.010926462709903717,0.0006409361958503723
-145.75732421875,-51.09676742553711,105.3431167602539,7.634963035583496,-3.4552841186523438,-5.085358142852783,-0.002020225627347827,0.006183796562254429,0.0013066459214314818
-145.7560272216797,-51.09245300292969,105.35527038574219,7.636988162994385,-3.4598865509033203,-5.090574741363525,0.0011527911992743611,-0.0011242924956604838,-0.0004108995199203491
-145.76025390625,-51.0870475769043,105.37247467041016,7.633489608764648,-3.466261863708496,-5.098130702972412,0.0006897374987602234,-0.0031538309995085,-0.0015325844287872314
-145.75999450683594,-51.08601760864258,105.38127899169922,7.638734817504883,-3.4839675426483154,-5.1034321784973145,0.0007940457435324788,0.0030068682972341776,0.0011688099475577474
-145.75729370117188,-51.090118408203125,105.38307189941406,7.632564067840576,-3.4545764923095703,-5.104899883270264,-0.005057454574853182,0.00657979492098093,-0.001314282533712685
-145.7611541748047,-51.09571838378906,105.38805389404297,7.641200542449951,-3.4615583419799805,-5.094936370849609,-0.006249174475669861,0.009340979158878326,-0.0005070120678283274
-145.75924682617188,-51.09578323364258,105.39338684082031,7.631373405456543,-3.4678995609283447,-5.083989143371582,-0.0003330409817863256,0.001960061490535736,0.0013163314433768392
-145.75694274902344,-51.089393615722656,105.4056167602539,7.638394832611084,-3.4618093967437744,-5.091366767883301,0.002581067616119981,-0.001452118158340454,0.00040922313928604126
-145.76051330566406,-51.0871467590332,105.42037200927734,7.634390830993652,-3.471383571624756,-5.097531318664551,-0.0012014060048386455,-0.0010028479155153036,-0.003218278521671891
-145.76206970214844,-51.089622497558594,105.42694854736328,7.637266635894775,-3.4718432426452637,-5.103434085845947,-0.002117827767506242,0.006966852117329836,0.0022450461983680725
-145.7570343017578,-51.092796325683594,105.42607116699219,7.64339542388916,-3.458789825439453,-5.101720333099365,-0.0035781420301645994,0.005075522698462009,-0.0007610769825987518
-145.75875854492188,-51.09305191040039,105.43572998046875,7.635533809661865,-3.4629859924316406,-5.087805271148682,-0.0005695968866348267,0.004230998922139406,0.0010536984773352742
-145.7584991455078,-51.090579986572266,105.44566345214844,7.638691425323486,-3.467397451400757,-5.099569320678711,-0.0011797994375228882,-0.000926852400880307,-0.0013403594493865967
-145.76004028320312,-51.08881378173828,105.45616912841797,7.639764308929443,-3.4643568992614746,-5.096472263336182,9.667129052104428e-05,0.004001521039754152,0.0016180798411369324
-145.75820922851562,-51.091407775878906,105.45991516113281,7.625715255737305,-3.460982322692871,-5.092501640319824,-0.00512711750343442,0.004439614713191986,-0.0018544496269896626
-145.760986328125,-51.09425735473633,105.46708679199219,7.644320964813232,-3.473404884338379,-5.086489677429199,-0.0019747766200453043,0.007187016308307648,0.0012090429663658142
-145.75674438476562,-51.09241485595703,105.47274017333984,7.6284589767456055,-3.4665563106536865,-5.089565277099609,-0.00018998980522155762,-0.00095963483909145,0.0006472690729424357
-145.76026916503906,-51.086456298828125,105.48910522460938,7.639570713043213,-3.469341993331909,-5.101212501525879,0.002200342947617173,-0.0026680531445890665,-0.0013951212167739868
-145.76194763183594,-51.08567810058594,105.5006103515625,7.62997579574585,-3.471587657928467,-5.106238842010498,-0.0018231571884825826,0.0014008954167366028,-0.0005975366220809519
-145.75881958007812,-51.089691162109375,105.50053405761719,7.632350921630859,-3.4674525260925293,-5.095832347869873,-0.0027358534280210733,0.0096907839179039,0.0023698434233665466
-145.75439453125,-51.09579849243164,105.49881744384766,7.631374835968018,-3.4555389881134033,-5.088117599487305,-0.005801767576485872,0.009462051093578339,-0.0004101544909644872
-145.75897216796875,-51.096797943115234,105.50921630859375,7.645419120788574,-3.460834264755249,-5.084085464477539,-0.0028945505619049072,0.003176741302013397,-0.0005990267382003367
-145.7582244873047,-51.09050369262695,105.52261352539062,7.639792442321777,-3.4662036895751953,-5.095502853393555,0.004475005436688662,-0.0031583011150360107,0.0012708829017356038
-145.75601196289062,-51.0836296081543,105.53607940673828,7.626637935638428,-3.463459014892578,-5.111018657684326,0.002670101821422577,-0.0039961193688213825,-0.00029988589813001454
-145.75888061523438,-51.084049224853516,105.54500579833984,7.63679313659668,-3.4721016883850098,-5.111380100250244,-0.003158674342557788,0.0038327653892338276,9.033831156557426e-05
-145.7576904296875,-51.090171813964844,105.54379272460938,7.629315376281738,-3.470747947692871,-5.0962395668029785,-0.005853921640664339,0.009688177146017551,0.0017119571566581726
-145.75482177734375,-51.0954475402832,105.54357147216797,7.639429092407227,-3.465010166168213,-5.08727502822876,-0.004693865310400724,0.009841658174991608,0.0004196539812255651
-145.75672912597656,-51.09645080566406,105.55337524414062,7.635946750640869,-3.464984893798828,-5.087223052978516,-0.0033158815931528807,0.0031897802837193012,-0.0015385451260954142
-145.75830078125,-51.09175491333008,105.56685638427734,7.637429237365723,-3.474637985229492,-5.090076446533203,0.0021012499928474426,-0.0005789101705886424,0.0013610348105430603
-145.7551727294922,-51.087093353271484,105.57672882080078,7.634037971496582,-3.459650993347168,-5.096671104431152,0.00132638996001333,-0.001108274213038385,-0.0002559275017119944
-145.7572784423828,-51.08747863769531,105.58656311035156,7.649599075317383,-3.474412202835083,-5.1077961921691895,-0.001645460957661271,0.002929010195657611,-0.0006429852219298482
-145.7579803466797,-51.08995056152344,105.59143829345703,7.631651878356934,-3.4640676975250244,-5.090933799743652,-0.00375807355158031,0.004437752068042755,0.000566430389881134
-145.7565155029297,-51.09056854248047,105.59628295898438,7.637162685394287,-3.4642457962036133,-5.102173328399658,-0.0008434057235717773,0.0043114651925861835,0.0007981435628607869
-145.75521850585938,-51.09022521972656,105.60474395751953,7.634395599365234,-3.4583933353424072,-5.09736967086792,-0.001263618585653603,0.002312846714630723,-0.0005558133125305176
-145.75787353515625,-51.09010314941406,105.61412048339844,7.647047996520996,-3.470959424972534,-5.091502666473389,-0.0036057084798812866,0.00394452316686511,1.210719347000122e-05
-145.75674438476562,-51.09141159057617,105.61778259277344,7.642433166503906,-3.460465431213379,-5.090305805206299,-0.0027943404857069254,0.005893968045711517,0.0018382444977760315
-145.75527954101562,-51.09194564819336,105.62368774414062,7.639554023742676,-3.4554190635681152,-5.093807220458984,-0.002354383934289217,0.0030899427365511656,-0.0006869436474516988
-145.7584991455078,-51.09037780761719,105.63668060302734,7.646162986755371,-3.471461772918701,-5.097585678100586,-0.0005193055258132517,0.0003932044201064855,-0.0006902961758896708
-145.75767517089844,-51.086669921875,105.64784240722656,7.638490200042725,-3.4709930419921875,-5.096394062042236,0.002670101821422577,-0.0016078356420621276,0.0005563721060752869
-145.75680541992188,-51.08457565307617,105.65735626220703,7.626333713531494,-3.455548048019409,-5.104288101196289,-0.0008516014204360545,0.0010525807738304138,-0.0007845460204407573
-145.76007080078125,-51.08872985839844,105.66400909423828,7.638275623321533,-3.4700732231140137,-5.11265230178833,-0.005280226469039917,0.007099845912307501,-0.0017218291759490967
-145.75750732421875,-51.09447479248047,105.66336822509766,7.640960693359375,-3.463832378387451,-5.092912197113037,-0.004064291715621948,0.010590814054012299,0.0029111283365637064
-145.7527618408203,-51.09507369995117,105.66509246826172,7.638601779937744,-3.4540176391601562,-5.088447093963623,-0.0026986002922058105,0.004202686715871096,0.00023264437913894653
-145.7563018798828,-51.09114074707031,105.68082427978516,7.6382904052734375,-3.4727931022644043,-5.0907135009765625,0.0016981736989691854,-0.001082196831703186,-0.0006623566150665283
-145.7577362060547,-51.08610534667969,105.6959457397461,7.640068054199219,-3.471698522567749,-5.099110126495361,0.001553632551804185,-0.0034164644312113523,-0.0008463860722258687
-145.75808715820312,-51.084930419921875,105.70439147949219,7.635286331176758,-3.4615726470947266,-5.112539291381836,-0.00110529363155365,0.0033287331461906433,0.000704638718161732
-145.7567596435547,-51.090702056884766,105.70519256591797,7.646371364593506,-3.4653916358947754,-5.105155944824219,-0.00605881167575717,0.008984839543700218,-0.0009216368780471385
-145.75685119628906,-51.09587478637695,105.70716857910156,7.634653091430664,-3.473296642303467,-5.085091590881348,-0.004635751247406006,0.008525514043867588,0.0017913059564307332
-145.75453186035156,-51.094783782958984,105.71395111083984,7.649764537811279,-3.466325283050537,-5.0873541831970215,-0.00024177134037017822,0.0025728719774633646,-0.0007756054401397705
-145.75718688964844,-51.09138488769531,105.72936248779297,7.628069877624512,-3.456850290298462,-5.09127140045166,-0.00019520522619131953,-0.0005040318355895579,-0.001029670238494873
-145.76004028320312,-51.0893669128418,105.7408676147461,7.641901016235352,-3.4707493782043457,-5.096625804901123,-0.0015117229195311666,0.001002289354801178,-0.0011704863281920552
-145.7581329345703,-51.089515686035156,105.74647521972656,7.629719257354736,-3.4637033939361572,-5.0998945236206055,0.0001220032645505853,0.0031230971217155457,0.001955591142177582
-145.75660705566406,-51.08952331542969,105.7522964477539,7.635223865509033,-3.469359874725342,-5.1122612953186035,-0.0031579285860061646,0.0022051858250051737,-0.001391395926475525
-145.7601776123047,-51.09087371826172,105.76173400878906,7.628263473510742,-3.4770987033843994,-5.092756748199463,-0.002221018075942993,0.004934333264827728,0.0004982576356269419
-145.7571563720703,-51.092185974121094,105.76605987548828,7.638731479644775,-3.4683399200439453,-5.102783203125,-0.0019054862204939127,0.004456752445548773,-6.183981895446777e-05
-145.757080078125,-51.09354019165039,105.77314758300781,7.636706352233887,-3.454083204269409,-5.0937910079956055,-0.0026602293364703655,0.005937181878834963,-0.00017173589731100947
-145.7578887939453,-51.0947265625,105.78038787841797,7.641845703125,-3.4650981426239014,-5.094699859619141,-0.0029571361374109983,0.0036997725255787373,-0.00060163444140926
-145.75709533691406,-51.09250259399414,105.78878021240234,7.6374993324279785,-3.4760937690734863,-5.091345310211182,0.0009892508387565613,0.001738034188747406,0.0020528214517980814
-145.75526428222656,-51.088050842285156,105.79965209960938,7.646390914916992,-3.4763641357421875,-5.10749626159668,0.001909770187921822,-0.003259629011154175,-0.0011105091543868184
-145.7604217529297,-51.08678436279297,105.81452941894531,7.633101940155029,-3.471738815307617,-5.113800048828125,-0.001829490065574646,0.0019045547815039754,-0.0020369889680296183
-145.75965881347656,-51.091278076171875,105.81637573242188,7.637576580047607,-3.4719772338867188,-5.101812839508057,-0.004545227158814669,0.00814441591501236,0.0018751249881461263
-145.7552490234375,-51.09514236450195,105.81471252441406,7.63179349899292,-3.4549448490142822,-5.091272354125977,-0.003963709343224764,0.008217803202569485,0.0008149072527885437
-145.7561492919922,-51.09624099731445,105.82323455810547,7.641977310180664,-3.4737229347229004,-5.085704326629639,-0.0026650726795196533,0.004201941657811403,-0.0007227063179016113
-145.7586212158203,-51.092464447021484,105.83642578125,7.625943183898926,-3.4634695053100586,-5.092336177825928,0.00021066518092993647,-0.0016786158084869385,0.000315345823764801
-145.7572479248047,-51.087032318115234,105.84721374511719,7.639842987060547,-3.467567205429077,-5.098593235015869,0.002062134677544236,-0.0006973742274567485,0.0015350059838965535
-145.7576141357422,-51.0870475769043,105.855712890625,7.6318769454956055,-3.458657741546631,-5.109982967376709,-0.003061443567276001,0.001705624395981431,-0.0018965454073622823
-145.75930786132812,-51.090293884277344,105.86188507080078,7.655447959899902,-3.4820094108581543,-5.103416919708252,-0.0015832484932616353,0.006389059126377106,0.001689605531282723
-145.7532196044922,-51.09158706665039,105.86302185058594,7.634627819061279,-3.462026357650757,-5.095993518829346,-0.001386925345286727,0.004390812944620848,0.0011349095730111003
-145.75466918945312,-51.09237289428711,105.87168884277344,7.649735927581787,-3.4710474014282227,-5.105815887451172,-0.003093108767643571,0.005704350769519806,-0.001045316574163735
-145.75848388671875,-51.09465026855469,105.8802261352539,7.633225440979004,-3.4616217613220215,-5.081240653991699,-0.005449727177619934,0.004597567021846771,-0.0007580966339446604
-145.75714111328125,-51.09419250488281,105.88533782958984,7.633432865142822,-3.4565486907958984,-5.081259250640869,-0.0004932284355163574,0.005227514076977968,0.0025717541575431824
-145.7538604736328,-51.09097671508789,105.89393615722656,7.634904861450195,-3.455000400543213,-5.094483375549316,0.00034328553010709584,-0.0026885420083999634,-0.0009339302778244019
-145.7595977783203,-51.08497619628906,105.91278839111328,7.646815299987793,-3.4866578578948975,-5.109384536743164,0.002666749060153961,-0.004452839959412813,-0.0006806104211136699
-145.75901794433594,-51.08274459838867,105.9227523803711,7.629932403564453,-3.46378755569458,-5.112064838409424,0.00011939556134166196,0.00032465902040712535,-7.078051567077637e-05
-145.75747680664062,-51.08815383911133,105.92346954345703,7.635727405548096,-3.462053060531616,-5.105994701385498,-0.005915760528296232,0.010508112609386444,0.00044647607137449086
-145.75650024414062,-51.09758758544922,105.91959381103516,7.638143062591553,-3.469452381134033,-5.091275215148926,-0.009616836905479431,0.013711118139326572,0.0007515773759223521
-145.7549285888672,-51.09999084472656,105.92253112792969,7.642055988311768,-3.471849203109741,-5.078286170959473,-0.0016812236281111836,0.006372667849063873,0.001711212215013802
-145.75390625,-51.09204864501953,105.9384994506836,7.647085189819336,-3.467782497406006,-5.090925693511963,0.003427081275731325,-0.00604093074798584,-0.0006109476671554148
-145.75942993164062,-51.08271408081055,105.96065521240234,7.63031530380249,-3.4607439041137695,-5.096596717834473,0.003236345946788788,-0.006860123481601477,-0.0015750527381896973
-145.75950622558594,-51.081565856933594,105.96929931640625,7.6339111328125,-3.460264205932617,-5.108046054840088,-0.00029020014335401356,0.0017745420336723328,0.0012921167071908712
-145.75503540039062,-51.08659744262695,105.96737670898438,7.63756799697876,-3.4631073474884033,-5.100716590881348,-0.003410876262933016,0.0076966374181210995,0.0009523705812171102
-145.75448608398438,-51.092342376708984,105.96946716308594,7.636610984802246,-3.4654929637908936,-5.0998711585998535,-0.005206838715821505,0.00896546896547079,-0.00017248094081878662
-145.7557830810547,-51.094215393066406,105.97611236572266,7.642300605773926,-3.4670443534851074,-5.087393760681152,-0.003538653254508972,0.005270726513117552,0.0002956017851829529
-145.75486755371094,-51.09156036376953,105.98590087890625,7.639701843261719,-3.466696262359619,-5.095828533172607,0.0011378899216651917,0.0017357991309836507,0.000267662137048319
-145.7541961669922,-51.08930969238281,105.99612426757812,7.639265060424805,-3.4642486572265625,-5.103386402130127,-0.0017080457182601094,0.001857243711128831,9.872020200418774e-06
-145.75674438476562,-51.08928298950195,106.00423431396484,7.642087459564209,-3.466583728790283,-5.091952323913574,-0.002737343544140458,0.0027308242861181498,-2.8312206268310547e-05
-145.7554473876953,-51.08900451660156,106.01045989990234,7.643659591674805,-3.464721202850342,-5.0921430587768555,-0.0003624708333518356,0.002826937008649111,0.0017071146285161376
-145.75450134277344,-51.08732986450195,106.01917266845703,7.631148338317871,-3.4616127014160156,-5.097228527069092,-0.0009831041097640991,-2.6449562938068993e-05,-0.0009626150713302195
-145.7589111328125,-51.087039947509766,106.0316390991211,7.647254943847656,-3.4673988819122314,-5.106482982635498,-0.0022631140891462564,0.0026864930987358093,-0.0012934209080412984
-145.7576904296875,-51.08998107910156,106.03507232666016,7.627455711364746,-3.4562766551971436,-5.09733247756958,-0.004030019510537386,0.0073378910310566425,0.0013628974556922913
-145.75445556640625,-51.09318923950195,106.03548431396484,7.638248920440674,-3.457418918609619,-5.094897747039795,-0.004137680400162935,0.007650069892406464,0.00086035585263744
-145.75662231445312,-51.093204498291016,106.04503631591797,7.63916540145874,-3.471770763397217,-5.089542865753174,-0.0027991835959255695,0.0016959387576207519,-0.001143664470873773
-145.75802612304688,-51.088584899902344,106.05885314941406,7.638083457946777,-3.4792826175689697,-5.094628810882568,0.002836621832102537,-0.0012792648049071431,0.0010507181286811829
-145.7565155029297,-51.08418273925781,106.07030487060547,7.629585266113281,-3.456881523132324,-5.104894638061523,0.000484473945107311,-0.0025738030672073364,-0.0012237579794600606
-145.7599334716797,-51.085147857666016,106.08063507080078,7.63796854019165,-3.465453624725342,-5.103768348693848,-0.0016856938600540161,0.004257821012288332,-0.0010129064321517944
-145.75799560546875,-51.08997344970703,106.0816879272461,7.630041122436523,-3.466834783554077,-5.100205421447754,-0.005127490498125553,0.007368811871856451,0.0011170286452397704
-145.75587463378906,-51.09260559082031,106.08282470703125,7.647879600524902,-3.4701600074768066,-5.100991725921631,-0.0034205622505396605,0.007914192974567413,0.0012854115338996053
-145.75616455078125,-51.093170166015625,106.09054565429688,7.633094310760498,-3.4631028175354004,-5.082698345184326,-0.003856420749798417,0.0033704566303640604,-0.0006932765245437622
-145.75973510742188,-51.09062957763672,106.10377502441406,7.652406215667725,-3.474475383758545,-5.096828937530518,7.990748417796567e-05,0.0006629154086112976,-0.0005006790743209422
-145.75758361816406,-51.08698272705078,106.11395263671875,7.62790584564209,-3.4520723819732666,-5.098006248474121,0.0015562400221824646,-0.0008959323749877512,0.0012038276763632894
-145.75762939453125,-51.08473587036133,106.12361907958984,7.63622522354126,-3.4675679206848145,-5.108544826507568,-0.000574067234992981,0.00021662564540747553,-0.0012315809726715088
-145.75991821289062,-51.086822509765625,106.13162994384766,7.628300666809082,-3.4730122089385986,-5.097965717315674,-0.0030722469091415405,0.004857219755649567,0.00015813858772162348
-145.7575225830078,-51.09017562866211,106.13320922851562,7.633106231689453,-3.4570255279541016,-5.093852519989014,-0.0032931568566709757,0.007143057882785797,0.0009203330264426768
-145.75634765625,-51.09343719482422,106.13764190673828,7.631316661834717,-3.4521772861480713,-5.085382461547852,-0.003805011510848999,0.007607974577695131,-0.0009562820778228343
-145.75839233398438,-51.09419631958008,106.14656066894531,7.639196395874023,-3.4644782543182373,-5.087529182434082,-0.003073737258091569,0.0030530616641044617,9.853393567027524e-05
-145.75758361816406,-51.08953857421875,106.15705871582031,7.647603988647461,-3.4773430824279785,-5.095037937164307,0.0028317796532064676,-0.0007040799246169627,0.0010272485669702291
-145.75588989257812,-51.08514404296875,106.16905212402344,7.628724098205566,-3.463458299636841,-5.100905895233154,0.0012626871466636658,-0.0021371992770582438,-0.00046119093894958496
-145.76150512695312,-51.085567474365234,106.18157196044922,7.654613494873047,-3.477827548980713,-5.116497993469238,-0.0033590944949537516,0.0022334977984428406,-0.0032275915145874023
-145.76133728027344,-51.09011459350586,106.18388366699219,7.634058475494385,-3.4641451835632324,-5.095345497131348,-0.004020705819129944,0.008685327135026455,0.0032434239983558655
-145.7560272216797,-51.09252166748047,106.18280029296875,7.6439008712768555,-3.463925361633301,-5.0995612144470215,-0.003688410622999072,0.0056134541518986225,-0.0008031725883483887
-145.7595977783203,-51.09217071533203,106.1959228515625,7.63171911239624,-3.4648993015289307,-5.094085693359375,-0.0008437784272246063,0.00235680490732193,-0.00047646465827710927
-145.7591094970703,-51.0885124206543,106.20657348632812,7.6386494636535645,-3.4714064598083496,-5.099798202514648,0.00036638230085372925,-0.0006459653959609568,0.0006483868346549571
-145.75814819335938,-51.086395263671875,106.21511840820312,7.628726959228516,-3.4542486667633057,-5.101006984710693,-5.1781535148620605e-05,0.0025263058487325907,0.0002508983016014099
-145.75892639160156,-51.08889389038086,106.22183990478516,7.643330097198486,-3.464484930038452,-5.1045308113098145,-0.003906339406967163,0.00426117330789566,-0.0011183320311829448
-145.75949096679688,-51.0911750793457,106.2271957397461,7.636289119720459,-3.474915027618408,-5.088263034820557,-0.0019449740648269653,0.006126426625996828,0.0012958422303199768
-145.7560577392578,-51.09001159667969,106.23308563232422,7.648198127746582,-3.4677908420562744,-5.097347736358643,-0.00010319056309526786,0.0007433817954733968,0.00043567275861278176
-145.7593231201172,-51.08719253540039,106.24651336669922,7.638925552368164,-3.4708709716796875,-5.1007914543151855,-0.0014029444428160787,0.0009616836905479431,-0.00152215373236686
-145.7618865966797,-51.08887481689453,106.25494384765625,7.632295608520508,-3.472879409790039,-5.098489761352539,-0.003788620699197054,0.004879571497440338,-0.00032186516909860075
-145.7592315673828,-51.09264373779297,106.25531768798828,7.632818698883057,-3.4547247886657715,-5.096290111541748,-0.004608184564858675,0.009225867688655853,0.0017946584848687053
-145.75770568847656,-51.09498596191406,106.25881958007812,7.636003017425537,-3.464228630065918,-5.090811729431152,-0.0038467347621917725,0.004753657151013613,-0.0005468726740218699
-145.7609405517578,-51.091392517089844,106.27336120605469,7.645763397216797,-3.477308988571167,-5.091123104095459,0.0012068079086020589,-0.001771003007888794,-0.00027827921439893544
-145.76011657714844,-51.08462905883789,106.28752136230469,7.6370463371276855,-3.4659392833709717,-5.107933044433594,0.0035027042031288147,-0.004088506102561951,0.0005571172223426402
-145.75979614257812,-51.08335494995117,106.29631042480469,7.629332065582275,-3.461951732635498,-5.113916873931885,-0.0018697232007980347,0.002967007225379348,-0.0005330890417098999
-145.7611846923828,-51.09109878540039,106.29730224609375,7.635434150695801,-3.4721858501434326,-5.103903770446777,-0.007833912968635559,0.011450239457190037,-0.0003714114136528224
-145.75851440429688,-51.09797668457031,106.2947998046875,7.639204025268555,-3.477221727371216,-5.085719585418701,-0.004896522033959627,0.010879525914788246,0.002400391036644578
-145.7565155029297,-51.095890045166016,106.30258178710938,7.644462585449219,-3.4612371921539307,-5.08165168762207,-0.0009544194326736033,0.0006878749118186533,-0.0007528811693191528
-145.7622833251953,-51.08942794799805,106.32270050048828,7.6317057609558105,-3.4647324085235596,-5.08864164352417,0.0012094154953956604,-0.0036273158621042967,-0.0016953798476606607
-145.76248168945312,-51.08518981933594,106.33518981933594,7.642881393432617,-3.4631035327911377,-5.105071067810059,0.002328120404854417,-0.0015851110219955444,0.000809691846370697
-145.7594757080078,-51.085758209228516,106.33937072753906,7.627479553222656,-3.4562745094299316,-5.103172302246094,-0.0022865834180265665,0.004065223038196564,0.00017117710376624018
-145.7615203857422,-51.09095001220703,106.34327697753906,7.64401388168335,-3.4697742462158203,-5.104321479797363,-0.0057768081314861774,0.0073825945146381855,-0.0009402632713317871
-145.76173400878906,-51.09321594238281,106.34782409667969,7.640406608581543,-3.4795098304748535,-5.0902252197265625,-0.0027805573772639036,0.005007349886000156,0.0017656016862019897
-145.75860595703125,-51.0903205871582,106.35568237304688,7.6415581703186035,-3.470369338989258,-5.094758987426758,0.001012347755022347,0.0012757256627082825,5.9418387536425143e-05
-145.75991821289062,-51.08900451660156,106.36783599853516,7.630503177642822,-3.4596197605133057,-5.102683067321777,-0.0016883014468476176,0.002240575850009918,-0.0009834767552092671
-145.7618865966797,-51.09089660644531,106.37444305419922,7.6367363929748535,-3.4707932472229004,-5.101322174072266,-0.0038810078985989094,0.005601532757282257,0.00021215529704932123
-145.75967407226562,-51.09237289428711,106.3773193359375,7.6351447105407715,-3.455942153930664,-5.096772193908691,-0.0021111220121383667,0.0049011786468327045,0.0017838552594184875
-145.7604522705078,-51.090919494628906,106.38754272460938,7.63486909866333,-3.4624621868133545,-5.097594261169434,-0.0013895331649109721,0.00021141022443771362,-0.00237487256526947
-145.76414489746094,-51.088687896728516,106.40203857421875,7.64006233215332,-3.475736141204834,-5.099735260009766,0.00043716278742067516,0.0004550442099571228,0.0002322718355571851
-145.76194763183594,-51.08796691894531,106.40819549560547,7.629719257354736,-3.4621543884277344,-5.106385707855225,-0.0017601996660232544,0.0028016045689582825,-0.00044964250992052257
-145.76219177246094,-51.091636657714844,106.41290283203125,7.631011486053467,-3.460676908493042,-5.10550594329834,-0.0039201234467327595,0.007968582212924957,-0.00016689299081917852
-145.7620086669922,-51.09574508666992,106.41604614257812,7.640352725982666,-3.46806263923645,-5.092028617858887,-0.005355477333068848,0.0067489235661923885,-0.0001490116264903918
-145.7606201171875,-51.095211029052734,106.42208862304688,7.644647598266602,-3.4756951332092285,-5.0899834632873535,-2.8312206268310547e-05,0.004572979640215635,0.0020394097082316875
-145.75941467285156,-51.091217041015625,106.43351745605469,7.632637023925781,-3.4643850326538086,-5.09812593460083,0.0001816079020500183,-0.0027086585760116577,-0.001574680325575173
-145.76658630371094,-51.087799072265625,106.45118713378906,7.636131286621094,-3.477508544921875,-5.097006797790527,-0.000810250814538449,-0.0006373971700668335,-0.0020258130971342325
-145.7655792236328,-51.08876419067383,106.45723724365234,7.630491256713867,-3.4687108993530273,-5.1022162437438965,-0.001173466444015503,0.0035127627197653055,0.001024268683977425
-145.76182556152344,-51.091434478759766,106.45829772949219,7.637760162353516,-3.466641902923584,-5.096944332122803,-0.0037495046854019165,0.006977282930165529,0.00039692968130111694
-145.7633056640625,-51.095027923583984,106.46395111083984,7.641077995300293,-3.4780421257019043,-5.094476222991943,-0.004417822230607271,0.006127544213086367,-0.0009890645742416382
-145.7648162841797,-51.09480667114258,106.47376251220703,7.634058475494385,-3.4689314365386963,-5.084718227386475,-0.0007580965175293386,0.002358667552471161,-0.00026486816932447255
-145.76177978515625,-51.091339111328125,106.4827880859375,7.638834476470947,-3.4601197242736816,-5.098833084106445,0.0017596406396478415,0.0011308117536827922,0.001543201389722526
-145.7626190185547,-51.08908462524414,106.49313354492188,7.6293511390686035,-3.470658540725708,-5.101093769073486,-0.002012775046750903,-0.0005248934030532837,-0.001941249123774469
-145.7656707763672,-51.08932113647461,106.50306701660156,7.644855976104736,-3.4761853218078613,-5.100776195526123,-0.00017210842634085566,0.003804080421105027,0.001298077404499054
-145.76150512695312,-51.09088897705078,106.50554656982422,7.631778717041016,-3.4641966819763184,-5.094563007354736,-0.0033196061849594116,0.004331954289227724,5.029141902923584e-06
-145.76498413085938,-51.09379959106445,106.51313781738281,7.6441779136657715,-3.4618079662323,-5.1018476486206055,-0.004731119144707918,0.00690016895532608,-0.001438334584236145
-145.76528930664062,-51.09538650512695,106.52001953125,7.631318092346191,-3.47147798538208,-5.094920635223389,-0.0018995256396010518,0.0033775344491004944,0.0006714836345054209
-145.76254272460938,-51.091487884521484,106.52877044677734,7.6432271003723145,-3.465630054473877,-5.1028289794921875,0.0017354266019538045,0.0004140660457778722,0.0008119270205497742
-145.76268005371094,-51.0893440246582,106.54024505615234,7.6378703117370605,-3.4699103832244873,-5.101809501647949,-0.0003885478072334081,0.0006763264536857605,-0.0014264137716963887
-145.76617431640625,-51.09078598022461,106.54931640625,7.639022350311279,-3.4692420959472656,-5.103940486907959,-0.0037480148021131754,0.004114769399166107,-0.00036172568798065186
-145.76397705078125,-51.09294509887695,106.55186462402344,7.634483337402344,-3.4646942615509033,-5.097198009490967,-0.001453980803489685,0.006054155994206667,0.0015368685126304626
-145.7608642578125,-51.093196868896484,106.55733489990234,7.6363606452941895,-3.4679391384124756,-5.1034650802612305,-0.0015653670998290181,0.0029439108911901712,-8.121132850646973e-05
-145.76495361328125,-51.09184265136719,106.56954193115234,7.637988090515137,-3.4773848056793213,-5.09586763381958,-0.0025141991209238768,0.0015525149647146463,-0.0011038038646802306
-145.76585388183594,-51.091190338134766,106.5781478881836,7.633090019226074,-3.461726665496826,-5.095463752746582,-0.0010564924450591207,0.0030582770705223083,0.0008853152394294739
-145.76280212402344,-51.09172058105469,106.58251953125,7.628023624420166,-3.459665298461914,-5.099698543548584,-0.002316758269444108,0.004456751048564911,0.0005716458545066416
-145.76475524902344,-51.09311294555664,106.5903091430664,7.6300201416015625,-3.463099956512451,-5.089508533477783,-0.003692135214805603,0.0037176539190113544,-0.001074746367521584
-145.7654266357422,-51.09291458129883,106.59906768798828,7.635754585266113,-3.4670345783233643,-5.093060493469238,-1.8626452629177948e-06,0.00298377126455307,0.0009274110780097544
-145.76329040527344,-51.090599060058594,106.60814666748047,7.629583835601807,-3.453596591949463,-5.098596096038818,0.00027995556592941284,-0.00032484534312970936,-0.0009335578070022166
-145.76596069335938,-51.08956527709961,106.62015533447266,7.6353254318237305,-3.470371723175049,-5.10081148147583,-0.0007662923308089375,0.0023661183658987284,-0.0009950250387191772
-145.76486206054688,-51.0912971496582,106.62503814697266,7.627478122711182,-3.4699313640594482,-5.105255603790283,-0.0024866315070539713,0.004669466521590948,0.0009497628780081868
-145.76336669921875,-51.093109130859375,106.62831115722656,7.647150993347168,-3.465031147003174,-5.1046552658081055,-0.003322959179058671,0.006186403334140778,0.0003354624204803258
-145.76541137695312,-51.095062255859375,106.63591766357422,7.628851890563965,-3.4625840187072754,-5.097405910491943,-0.004548206925392151,0.0045759608037769794,-0.0011671335669234395
-145.76739501953125,-51.094970703125,106.6456527709961,7.645660400390625,-3.4705638885498047,-5.090673923492432,-0.0011112542124465108,0.0033585354685783386,-0.0001963228132808581
-145.76400756835938,-51.09230041503906,106.653076171875,7.630865097045898,-3.4676239490509033,-5.092950820922852,0.00045578929712064564,0.0007031486020423472,0.0019440427422523499
-145.76573181152344,-51.089454650878906,106.66426849365234,7.643560886383057,-3.4634628295898438,-5.107766151428223,-0.0014822930097579956,-0.00041984024574048817,-0.002469494938850403
-145.76971435546875,-51.09063720703125,106.67569732666016,7.641008377075195,-3.4801743030548096,-5.097314357757568,-0.001595169655047357,0.0037351627834141254,-7.636845111846924e-05
-145.76625061035156,-51.09195327758789,106.67860412597656,7.6371355056762695,-3.4706764221191406,-5.100724697113037,-0.0019960105419158936,0.003824569983407855,0.0006975607248023152
-145.76515197753906,-51.093143463134766,106.68376159667969,7.630601406097412,-3.4669783115386963,-5.101903438568115,-0.002781301736831665,0.0063868239521980286,0.0004051253490615636
-145.76806640625,-51.095584869384766,106.69219207763672,7.648306846618652,-3.4696788787841797,-5.09473180770874,-0.005000830162316561,0.0036584213376045227,-0.0027105214539915323
-145.76795959472656,-51.095245361328125,106.70016479492188,7.631407737731934,-3.4668519496917725,-5.0919389724731445,0.0011453406186774373,0.005210748873651028,0.003240443766117096
-145.76239013671875,-51.09268569946289,106.70533752441406,7.638111591339111,-3.4593701362609863,-5.093728542327881,-0.001506880042143166,-0.0004813075065612793,-0.0011060388060286641
-145.76788330078125,-51.091129302978516,106.71886444091797,7.640777587890625,-3.4699976444244385,-5.093735694885254,-0.0006847084150649607,0.0029621648136526346,0.0006107613444328308
-145.7667236328125,-51.09148025512695,106.7249984741211,7.636441230773926,-3.4689269065856934,-5.096667289733887,-0.002583115827292204,0.00126343232113868,-0.000587478163652122
-145.76687622070312,-51.09153366088867,106.73246765136719,7.632780075073242,-3.465355157852173,-5.1004486083984375,-0.0002995133399963379,0.0050352890975773335,0.001385994371958077
-145.76544189453125,-51.09319305419922,106.73822784423828,7.637763023376465,-3.463834524154663,-5.096510887145996,-0.004100053571164608,0.0029856336768716574,-0.0017959622200578451
-145.76890563964844,-51.09450912475586,106.74707794189453,7.638244152069092,-3.464862823486328,-5.094148635864258,-0.0023081901017576456,0.006405078340321779,0.0008808448910713196
-145.76437377929688,-51.09471893310547,106.75054931640625,7.642762184143066,-3.4559175968170166,-5.089133262634277,-0.001290440559387207,0.0026205561589449644,0.0009926038328558207
-145.766845703125,-51.09275436401367,106.76184844970703,7.638546943664551,-3.46464204788208,-5.094099998474121,-0.0020708893425762653,0.0019369650399312377,-0.0013880435144528747
-145.76858520507812,-51.092166900634766,106.77183532714844,7.638156414031982,-3.4737393856048584,-5.101606845855713,-0.0008285046787932515,0.0015782195841893554,0.0009303913684561849
-145.76560974121094,-51.09005355834961,106.77851867675781,7.627478122711182,-3.4534871578216553,-5.10422945022583,0.0009270386071875691,0.0010984018445014954,0.0007016584859229624
-145.76681518554688,-51.090370178222656,106.78849029541016,7.640624046325684,-3.4621498584747314,-5.115789413452148,-0.0024355947971343994,0.002663396066054702,-0.002088025212287903
-145.76913452148438,-51.092952728271484,106.7951431274414,7.633498191833496,-3.4725770950317383,-5.103616237640381,-0.00377297424711287,0.006031058728694916,0.0012526288628578186
-145.76451110839844,-51.09430694580078,106.79615783691406,7.641635894775391,-3.4680306911468506,-5.09816837310791,-0.0013124197721481323,0.00583771662786603,0.0014210119843482971
-145.7652130126953,-51.094482421875,106.80592346191406,7.642601490020752,-3.470801591873169,-5.090292453765869,-0.0025197863578796387,0.0023594126105308533,-0.002151727909222245
-145.76966857910156,-51.09355545043945,106.81848907470703,7.646477222442627,-3.4769275188446045,-5.090909004211426,-0.0016238540410995483,0.0023135917726904154,0.00011418014764785767
-145.76608276367188,-51.09208297729492,106.8231201171875,7.625077724456787,-3.4641311168670654,-5.089548110961914,-0.0004686415777541697,0.002987869782373309,0.0020140784326940775
-145.76438903808594,-51.09136962890625,106.83009338378906,7.638503551483154,-3.4665539264678955,-5.0965399742126465,-0.0008232892723754048,0.0018948690267279744,-0.0005271285772323608
-145.7675018310547,-51.091331481933594,106.84149169921875,7.629315376281738,-3.463508129119873,-5.100852012634277,-0.0016983598470687866,0.0019391998648643494,-0.0007178634987212718
-145.76719665527344,-51.0916862487793,106.84830474853516,7.633946895599365,-3.4662723541259766,-5.1027069091796875,-0.001469254493713379,0.004166923929005861,0.0006770715117454529
-145.7645721435547,-51.093238830566406,106.85189819335938,7.638178825378418,-3.4524641036987305,-5.100254058837891,-0.0028837474528700113,0.005706213414669037,0.0008558854460716248
-145.76512145996094,-51.09571075439453,106.85774993896484,7.634911060333252,-3.468871831893921,-5.098833084106445,-0.0036817046348005533,0.006333179771900177,-0.000887736736331135
-145.76513671875,-51.09654235839844,106.86540222167969,7.636702060699463,-3.4693777561187744,-5.090985298156738,-0.0009573996649123728,0.003743358189240098,0.0010224059224128723
-145.7629852294922,-51.0931282043457,106.87471008300781,7.64380407333374,-3.4803292751312256,-5.090242385864258,0.0015566126676276326,-0.00016577541828155518,1.4342368558573071e-05
-145.76541137695312,-51.09050369262695,106.88784790039062,7.629020690917969,-3.466059923171997,-5.0980424880981445,-0.0010464340448379517,-3.539026147336699e-05,-0.0012952835531905293
-145.76828002929688,-51.09132385253906,106.89619445800781,7.637845039367676,-3.47015643119812,-5.1010355949401855,-0.003128499025478959,0.003783218562602997,-4.9918893637368456e-05
-145.76499938964844,-51.09370040893555,106.89795684814453,7.6271491050720215,-3.4539408683776855,-5.096434116363525,-0.0019229952013120055,0.0064348806627094746,0.0018427148461341858
-145.76417541503906,-51.09577941894531,106.90336608886719,7.637202739715576,-3.4627490043640137,-5.09636926651001,-0.004537403583526611,0.004958547186106443,-0.001819804310798645
-145.76760864257812,-51.0966796875,106.91300964355469,7.632965087890625,-3.4683480262756348,-5.095705509185791,-0.002382323145866394,0.004717894364148378,0.0010604039998725057
-145.76339721679688,-51.093894958496094,106.91907501220703,7.631669998168945,-3.4618377685546875,-5.094825267791748,0.001317821559496224,0.0004334375262260437,0.0013833866687491536
-145.7630157470703,-51.09064865112305,106.93017578125,7.631851673126221,-3.4648611545562744,-5.10800838470459,-4.917383557767607e-05,0.0006010756478644907,-0.00018440186977386475
-145.7660675048828,-51.09158706665039,106.9398193359375,7.640293121337891,-3.480398654937744,-5.098531246185303,-0.002980977762490511,0.0031853101681917906,-0.0010572373867034912
-145.76548767089844,-51.09365463256836,106.94438171386719,7.64027214050293,-3.459991455078125,-5.097775936126709,-0.001968071097508073,0.0054990872740745544,0.001722387969493866
-145.7635040283203,-51.09467697143555,106.94950866699219,7.633977890014648,-3.456821918487549,-5.096783638000488,-0.0027395787183195353,0.0039422884583473206,-0.001415237900801003
-145.766357421875,-51.095184326171875,106.96001434326172,7.631593704223633,-3.472301483154297,-5.09171724319458,-0.0020280482713133097,0.0037038701120764017,0.00014398244093172252
-145.7637939453125,-51.09351348876953,106.9659423828125,7.640974044799805,-3.4661569595336914,-5.092978477478027,-0.00030659139156341553,0.002086721593514085,0.0017331913113594055
-145.7630615234375,-51.09227752685547,106.97412872314453,7.635828971862793,-3.46405291557312,-5.101142406463623,-0.001427531591616571,0.002701022196561098,-0.0007864088984206319
-145.7662811279297,-51.09373474121094,106.98392486572266,7.641323089599609,-3.468859910964966,-5.098616600036621,-0.003305822843685746,0.0033779069781303406,-0.0007502735243178904
-145.7654266357422,-51.093746185302734,106.98982238769531,7.639838695526123,-3.4661145210266113,-5.095441818237305,-0.0007629393949173391,0.0035984439309686422,0.0016374511178582907
-145.76280212402344,-51.09158706665039,106.99729919433594,7.638867378234863,-3.4693799018859863,-5.09934663772583,9.70438341028057e-05,4.656613782572094e-06,-4.3213378376094624e-05
-145.76699829101562,-51.09053039550781,107.0104751586914,7.633543014526367,-3.4654877185821533,-5.106461048126221,-0.0023894014302641153,0.0017890708986669779,-0.0021964311599731445
-145.76817321777344,-51.093605041503906,107.016357421875,7.634401321411133,-3.4668304920196533,-5.102683067321777,-0.0037174674216657877,0.006991811096668243,0.000823475478682667
-145.7637176513672,-51.096923828125,107.01642608642578,7.628153324127197,-3.442673444747925,-5.094715595245361,-0.0028882178012281656,0.007439963985234499,0.0006625427631661296
-145.7640380859375,-51.09774398803711,107.02429962158203,7.641570091247559,-3.468217611312866,-5.089686870574951,-0.0028301032725721598,0.0038025900721549988,-0.0007390976534225047
-145.76565551757812,-51.094295501708984,107.0359115600586,7.642057418823242,-3.4829161167144775,-5.095802307128906,0.0008160249562934041,-0.0005882233963347971,0.0012813139474019408
-145.76332092285156,-51.088905334472656,107.04659271240234,7.637345790863037,-3.462308645248413,-5.100888252258301,0.002797879511490464,-0.0020463019609451294,0.0006211922154761851
-145.7661895751953,-51.088401794433594,107.0582275390625,7.634519100189209,-3.462815999984741,-5.110813140869141,-0.0032816079910844564,0.0014794989256188273,-0.0024035568349063396
-145.7696990966797,-51.09376525878906,107.06275939941406,7.6355204582214355,-3.4724667072296143,-5.103662490844727,-0.005983561743050814,0.009321235120296478,0.0006666407571174204
-145.76515197753906,-51.09872055053711,107.06033325195312,7.6368913650512695,-3.450237274169922,-5.0848188400268555,-0.004771724808961153,0.008713267743587494,0.0012895092368125916
-145.76515197753906,-51.09809875488281,107.06904602050781,7.642224311828613,-3.4594342708587646,-5.097047328948975,-0.0014800577191635966,0.0022584572434425354,-0.0009033829555846751
-145.76885986328125,-51.09284591674805,107.08607482910156,7.630482196807861,-3.46683931350708,-5.08856201171875,0.001239590346813202,-0.0036928802728652954,-0.0010527671547606587
-145.76881408691406,-51.087589263916016,107.098876953125,7.64021110534668,-3.468594789505005,-5.105999946594238,0.0026201829314231873,-0.0016301871510222554,0.0007154420018196106
-145.7658233642578,-51.088890075683594,107.10261535644531,7.629239559173584,-3.459221839904785,-5.106998443603516,-0.003188103437423706,0.005423836875706911,0.000588037131819874
-145.76727294921875,-51.095252990722656,107.10443878173828,7.645633697509766,-3.4747321605682373,-5.094180107116699,-0.006332621444016695,0.008911451324820518,-0.0007458031759597361
-145.766845703125,-51.09830093383789,107.10901641845703,7.636185169219971,-3.472317695617676,-5.089323997497559,-0.002016499638557434,0.006003491580486298,0.0012105331989005208
-145.76475524902344,-51.095062255859375,107.11880493164062,7.64162540435791,-3.4732251167297363,-5.096518039703369,0.0005403533577919006,0.00015553088451270014,-0.0006340444087982178
-145.76942443847656,-51.09227752685547,107.13346862792969,7.626296520233154,-3.4615001678466797,-5.094549655914307,-0.002918020123615861,0.0006517395377159119,-0.0016946345567703247
-145.77114868164062,-51.09267044067383,107.14088439941406,7.641610622406006,-3.4685559272766113,-5.101373672485352,-0.00158511137124151,0.003414787817746401,0.0009903685422614217
-145.76661682128906,-51.09327697753906,107.1439437866211,7.625955581665039,-3.4529707431793213,-5.089132785797119,-0.0013936312170699239,0.004163198638707399,0.0009594486327841878
-145.767822265625,-51.093631744384766,107.15335083007812,7.6404290199279785,-3.469263792037964,-5.09489631652832,-0.0016286972677335143,0.0018501656595617533,-0.0018119815504178405
-145.76974487304688,-51.09269714355469,107.1645278930664,7.626256465911865,-3.4659624099731445,-5.095643043518066,-3.1292442145058885e-05,0.00196751207113266,0.0005668029189109802
-145.7661895751953,-51.0915412902832,107.16990661621094,7.639177322387695,-3.467308759689331,-5.113473415374756,-0.0001881271309684962,0.0028571116272360086,0.0009020790457725525
-145.7659912109375,-51.09320831298828,107.17565155029297,7.629044532775879,-3.4708261489868164,-5.100633144378662,-0.003793835872784257,0.005851872731000185,-0.00019408762454986572
-145.76756286621094,-51.09579849243164,107.18143463134766,7.6426191329956055,-3.480721950531006,-5.098828315734863,-0.003405660390853882,0.005103834439069033,0.00034030526876449585
-145.7668914794922,-51.09482955932617,107.18900299072266,7.631939888000488,-3.4677557945251465,-5.087215900421143,-0.0010382384061813354,0.0026429069694131613,0.0006007030024193227
-145.7676239013672,-51.09269714355469,107.19955444335938,7.646219253540039,-3.4643747806549072,-5.100287914276123,-0.0014275314752012491,0.0007769094663672149,-0.0007070602150633931
-145.77024841308594,-51.09189224243164,107.21039581298828,7.632444858551025,-3.4608490467071533,-5.095097541809082,-0.001598149654455483,0.0019362197490409017,-0.0007268041372299194
-145.76864624023438,-51.09239196777344,107.2166748046875,7.6388044357299805,-3.4685113430023193,-5.102778911590576,-0.00059381133178249,0.003604777157306671,0.0008413568721152842
-145.7662811279297,-51.093082427978516,107.2216567993164,7.630582332611084,-3.452481269836426,-5.10162878036499,-0.002228841418400407,0.004188902676105499,0.0002646819339133799
-145.76791381835938,-51.094181060791016,107.2296371459961,7.644739627838135,-3.4765384197235107,-5.095000743865967,-0.002494082087650895,0.003993324935436249,-0.0007208436145447195
-145.7676239013672,-51.09455108642578,107.2369613647461,7.635690212249756,-3.469879150390625,-5.088872909545898,-0.0013865531655028462,0.004131533671170473,0.0010108575224876404
-145.76669311523438,-51.09397506713867,107.244384765625,7.642515182495117,-3.457921028137207,-5.10124397277832,-0.0014953316422179341,0.0023363158106803894,-0.000891462026629597
-145.77139282226562,-51.09400177001953,107.25694274902344,7.636634826660156,-3.469026803970337,-5.107376575469971,-0.003147498471662402,0.0020129606127738953,-0.0024903565645217896
-145.77142333984375,-51.093353271484375,107.26486206054688,7.637617111206055,-3.4720680713653564,-5.098466396331787,0.00019017609884031117,0.0024264680687338114,0.0020874664187431335
-145.76666259765625,-51.09172821044922,107.26893615722656,7.624837875366211,-3.4490458965301514,-5.091001510620117,-0.001562759280204773,0.002635456621646881,0.0003283843689132482
-145.7696533203125,-51.09400939941406,107.27787017822266,7.646572589874268,-3.4856107234954834,-5.101328372955322,-0.003473087679594755,0.005486793350428343,-0.0015445053577423096
-145.77064514160156,-51.09618377685547,107.28467559814453,7.625748157501221,-3.4674479961395264,-5.094707012176514,-0.0026989730540663004,0.004040263593196869,0.0005746260285377502
-145.76748657226562,-51.09428024291992,107.29068756103516,7.644343376159668,-3.4696638584136963,-5.096044540405273,0.0008458272204734385,0.0028641894459724426,0.0013032929273322225
-145.76766967773438,-51.092411041259766,107.30144500732422,7.632963180541992,-3.4702486991882324,-5.09891939163208,-0.0013999642105773091,-0.00020600856805685908,-0.0016272070351988077
-145.77195739746094,-51.09150695800781,107.31330871582031,7.649865627288818,-3.4739174842834473,-5.101706027984619,-0.0012289733858779073,0.0023266300559043884,8.661302126711234e-05
-145.76959228515625,-51.092559814453125,107.31756591796875,7.632139205932617,-3.4538447856903076,-5.093960285186768,-0.0023528935853391886,0.004287995398044586,0.00040475279092788696
-145.76971435546875,-51.095306396484375,107.32304382324219,7.628773212432861,-3.4553303718566895,-5.09869909286499,-0.0037960715126246214,0.006583520211279392,-0.0009596349555067718
-145.7701873779297,-51.096466064453125,107.32998657226562,7.632292747497559,-3.4764275550842285,-5.090484142303467,-0.0020351260900497437,0.003001280128955841,0.0009493904071860015
-145.76763916015625,-51.09292984008789,107.33829498291016,7.637946128845215,-3.472304344177246,-5.099845886230469,0.00183936208486557,0.0012608246179297566,0.0010332092642784119
-145.7687530517578,-51.091739654541016,107.34957885742188,7.632688999176025,-3.4538373947143555,-5.104208946228027,-0.002587586874142289,0.0010060148779302835,-0.0021144747734069824
-145.77342224121094,-51.09381866455078,107.35807800292969,7.642147064208984,-3.4731359481811523,-5.10304069519043,-0.004295259714126587,0.0059144566766917706,0.00040512531995773315
-145.76934814453125,-51.09627151489258,107.35862731933594,7.637894153594971,-3.4635872840881348,-5.092888832092285,-0.002570077544078231,0.0062400479800999165,0.0016009435057640076
-145.7669677734375,-51.095462799072266,107.36641693115234,7.634341716766357,-3.466463088989258,-5.084946155548096,0.0009139999747276306,0.0015838072868064046,-0.00044479966163635254
-145.77023315429688,-51.09195327758789,107.38174438476562,7.638256072998047,-3.4691154956817627,-5.097723960876465,-0.0004980713711120188,-0.0018950551748275757,-0.0013869255781173706
-145.77285766601562,-51.08954620361328,107.3926773071289,7.6365485191345215,-3.462547779083252,-5.104560375213623,-0.0004339963779784739,0.0011211262317374349,0.0003846362233161926
-145.76959228515625,-51.091548919677734,107.3955307006836,7.6307878494262695,-3.4600071907043457,-5.100622177124023,-0.002568960888311267,0.006057509686797857,0.0006897376151755452
-145.77005004882812,-51.09624099731445,107.39923095703125,7.627086162567139,-3.456031560897827,-5.097384929656982,-0.005781650543212891,0.007447042968124151,-0.0012189149856567383
-145.77102661132812,-51.097721099853516,107.4062728881836,7.6324462890625,-3.471606969833374,-5.085057258605957,-0.0010192397749051452,0.004364363849163055,0.001069344813004136
-145.76681518554688,-51.093177795410156,107.41486358642578,7.638397693634033,-3.4657278060913086,-5.099537372589111,0.0021407383028417826,-0.0008452684851363301,0.0014213846297934651
-145.76914978027344,-51.089271545410156,107.42919158935547,7.634860038757324,-3.468698263168335,-5.106930255889893,0.00010374934208812192,-0.0013515354366973042,-0.002487003803253174
-145.77134704589844,-51.090694427490234,107.43812561035156,7.644292831420898,-3.4803993701934814,-5.102541446685791,-0.0017724934732541442,0.004986487329006195,0.0014221296878531575
-145.76771545410156,-51.09388732910156,107.43802642822266,7.635793209075928,-3.4566171169281006,-5.098242282867432,-0.004041940439492464,0.006272085011005402,6.314367055892944e-05
-145.76882934570312,-51.09574508666992,107.4447250366211,7.6437087059021,-3.4714460372924805,-5.092884063720703,-0.0027019535191357136,0.005191379692405462,0.0004773960099555552
-145.76902770996094,-51.093345642089844,107.45491790771484,7.63640832901001,-3.4683547019958496,-5.100332260131836,9.59262324613519e-05,-0.0008016825304366648,-0.00027492642402648926
-145.7685089111328,-51.0885124206543,107.46756744384766,7.63572883605957,-3.4633138179779053,-5.1021246910095215,0.0031253325287252665,-0.0008281320333480835,0.0010861085029318929
-145.7681427001953,-51.088043212890625,107.47587585449219,7.641123294830322,-3.4623823165893555,-5.10430908203125,-0.0031929463148117065,0.002147815888747573,-0.001426786300726235
-145.77102661132812,-51.09312057495117,107.47991943359375,7.633683204650879,-3.4689090251922607,-5.105794429779053,-0.005319342482835054,0.009744800627231598,0.0008596107945777476
-145.76690673828125,-51.09758758544922,107.47956085205078,7.636159896850586,-3.464040994644165,-5.088507652282715,-0.003277510404586792,0.007033534348011017,0.0006696208729408681
-145.7659454345703,-51.09569549560547,107.48909759521484,7.639875888824463,-3.473558187484741,-5.089271068572998,0.0004524365358520299,0.0019768252968788147,0.0004323199682403356
-145.76834106445312,-51.09145736694336,107.50367736816406,7.6369853019714355,-3.4727394580841064,-5.100031852722168,-0.00021457676484715194,-0.002115219831466675,-0.0018026682082563639
-145.7712860107422,-51.08946228027344,107.5156021118164,7.625509738922119,-3.467617988586426,-5.10561466217041,-0.00038854777812957764,0.0018214808078482747,0.00040512531995773315
-145.76832580566406,-51.09205627441406,107.51799774169922,7.6277241706848145,-3.456878662109375,-5.111186981201172,-0.0035196549724787474,0.006210991647094488,8.549542690161616e-05
-145.7689208984375,-51.09593963623047,107.52204132080078,7.6339826583862305,-3.465803623199463,-5.096001148223877,-0.004541501402854919,0.006654300261288881,-0.00013262033462524414
-145.76821899414062,-51.09562301635742,107.52887725830078,7.63624906539917,-3.4729621410369873,-5.088876724243164,-0.0005751848220825195,0.0027703128289431334,0.0013450164115056396
-145.76719665527344,-51.09130859375,107.5403823852539,7.636499404907227,-3.457944869995117,-5.100829124450684,0.001335330307483673,-0.0014774500159546733,-0.0006608663825318217
-145.76931762695312,-51.09013748168945,107.55211639404297,7.637019634246826,-3.472445249557495,-5.104675769805908,-0.0018004330340772867,0.003201328683644533,-0.00047273942618630826
-145.76844787597656,-51.093238830566406,107.55499267578125,7.633054256439209,-3.4659013748168945,-5.091352939605713,-0.0035684555768966675,0.00597368972375989,0.0011878088116645813
-145.7660369873047,-51.095306396484375,107.55823516845703,7.644402980804443,-3.4731767177581787,-5.099096775054932,-0.0016950073186308146,0.006111526396125555,0.0003838912525679916
-145.76829528808594,-51.09518814086914,107.56953430175781,7.629141330718994,-3.4643783569335938,-5.09857702255249,-0.0026032328605651855,0.000690855027642101,-0.0023093074560165405
-145.7725067138672,-51.09232711791992,107.58334350585938,7.6362223625183105,-3.47393536567688,-5.096420764923096,0.00020805747772101313,0.000648014189209789,-1.341104507446289e-05
-145.7681121826172,-51.09088897705078,107.58841705322266,7.61962366104126,-3.465364933013916,-5.093780994415283,-0.0003390014171600342,0.0027673321310430765,0.0015309082809835672
-145.7679901123047,-51.0931396484375,107.5937271118164,7.64529275894165,-3.4724512100219727,-5.102858543395996,-0.004157423507422209,0.005740858614444733,-0.0015411525964736938
-145.77108764648438,-51.09677505493164,107.60096740722656,7.63345193862915,-3.4659221172332764,-5.095448970794678,-0.003886968595907092,0.005786680616438389,-4.172326225670986e-05
-145.76837158203125,-51.095890045166016,107.60623168945312,7.643824577331543,-3.4677534103393555,-5.090155124664307,-0.00046454378752969205,0.003306382102891803,0.001600571209564805
-145.7675018310547,-51.09273147583008,107.61676788330078,7.634732246398926,-3.4510538578033447,-5.097959041595459,0.0002587214403320104,-0.000630691647529602,-0.0010568649740889668
-145.77066040039062,-51.090797424316406,107.62992858886719,7.652841567993164,-3.486020088195801,-5.102128982543945,-0.00047348448424600065,0.0009784474968910217,-0.00038072472671046853
-145.7700958251953,-51.091495513916016,107.6351318359375,7.622161388397217,-3.46140718460083,-5.100881099700928,-0.0033065681345760822,0.004100613761693239,0.0009389595361426473
-145.7698516845703,-51.094120025634766,107.638916015625,7.643607139587402,-3.4619271755218506,-5.111588478088379,-0.003739074105396867,0.006275438237935305,-0.0003069638623856008
-145.77113342285156,-51.09663391113281,107.64633178710938,7.628187656402588,-3.4649572372436523,-5.095160007476807,-0.003831833368167281,0.004790164530277252,-0.0009302050457336009
-145.76937866210938,-51.09531021118164,107.65422058105469,7.647951126098633,-3.474693775177002,-5.096601486206055,0.0017283486668020487,0.002653338247910142,0.0018017370020970702
-145.76571655273438,-51.09245300292969,107.66157531738281,7.628078937530518,-3.4667820930480957,-5.089608669281006,-0.0012673437595367432,0.0013848767848685384,0.00042188912630081177
-145.77171325683594,-51.09284973144531,107.67325592041016,7.644996166229248,-3.4702816009521484,-5.096211910247803,-0.003737583989277482,0.0025944786611944437,-0.0026032328605651855
-145.77207946777344,-51.0948371887207,107.67930603027344,7.630716323852539,-3.4653754234313965,-5.091586112976074,-0.002063065767288208,0.0058287749998271465,0.0025859102606773376
-145.76759338378906,-51.09423065185547,107.68273162841797,7.642213821411133,-3.4637763500213623,-5.10111141204834,-0.0012915581464767456,0.001711584976874292,-0.0006865710602141917
-145.77154541015625,-51.093013763427734,107.696533203125,7.634687423706055,-3.4730753898620605,-5.087965965270996,-0.0010337680578231812,0.0017976391827687621,-0.0009987503290176392
-145.7730712890625,-51.09230422973633,107.7065200805664,7.631777286529541,-3.471858024597168,-5.104691505432129,-0.0014733525458723307,0.0006614254089072347,-0.0010360033484175801
-145.7722930908203,-51.092918395996094,107.7125473022461,7.628046035766602,-3.4547104835510254,-5.102367877960205,-0.0021308662835508585,0.006258674897253513,0.000977330026216805
-145.77056884765625,-51.09663391113281,107.71507263183594,7.639030933380127,-3.457505226135254,-5.0992350578308105,-0.005011260509490967,0.006117113400250673,-0.0009410083875991404
-145.77175903320312,-51.097320556640625,107.7224349975586,7.638813495635986,-3.4780807495117188,-5.087082386016846,-0.0012915582628920674,0.0045018270611763,0.0015744940610602498
-145.7692413330078,-51.09342956542969,107.73136138916016,7.638908863067627,-3.4656808376312256,-5.096049785614014,0.0006543472409248352,-0.001562759280204773,0.0002441928081680089
-145.77197265625,-51.09008026123047,107.74524688720703,7.638274192810059,-3.46250319480896,-5.108401775360107,1.620501461729873e-05,0.0005690380930900574,-0.0009719282970763743
-145.77301025390625,-51.09215545654297,107.75196838378906,7.6363654136657715,-3.4751386642456055,-5.102755069732666,-0.0041659921407699585,0.004684366751462221,8.624047768535092e-05
-145.77047729492188,-51.09553146362305,107.75267028808594,7.638730049133301,-3.4649856090545654,-5.091427326202393,-0.0025119632482528687,0.008180552162230015,0.002002529799938202
-145.76870727539062,-51.097084045410156,107.75830841064453,7.641398906707764,-3.460146427154541,-5.099456310272217,-0.0030610712710767984,0.003194250864908099,-0.0015228986740112305
-145.7738037109375,-51.09490966796875,107.7729721069336,7.638701915740967,-3.471534013748169,-5.094110012054443,-0.0004306435876060277,0.0007526949048042297,-0.0006698072538711131
-145.7715606689453,-51.09236145019531,107.78141021728516,7.632681846618652,-3.475684642791748,-5.096011638641357,0.0006141141057014465,0.0014455990167334676,0.0010048969415947795
-145.77078247070312,-51.0927734375,107.78751373291016,7.636918067932129,-3.457183361053467,-5.101683139801025,-0.0035014005843549967,0.004052184522151947,-0.0006105751381255686
-145.77212524414062,-51.09613037109375,107.79216766357422,7.635235786437988,-3.480285406112671,-5.092196941375732,-0.004028528928756714,0.00730808824300766,0.001121498760767281
-145.76914978027344,-51.09642791748047,107.79637908935547,7.6450629234313965,-3.466632127761841,-5.095711708068848,-0.0006485730991698802,0.002510286867618561,0.0011635945411399007
-145.7689208984375,-51.092227935791016,107.80882263183594,7.63571834564209,-3.4740030765533447,-5.100053310394287,0.0017931684851646423,-0.001045316574163735,-0.00018477444245945662
-145.77142333984375,-51.090423583984375,107.82144165039062,7.63170862197876,-3.468815326690674,-5.103536128997803,-0.0018097460269927979,0.0011147932382300496,-0.0013209879398345947
-145.7719268798828,-51.0928840637207,107.82569885253906,7.6379075050354,-3.475496292114258,-5.102260589599609,-0.0035621225833892822,0.006675160489976406,0.0018687917618080974
-145.76841735839844,-51.096595764160156,107.82523345947266,7.633042335510254,-3.466500997543335,-5.094130516052246,-0.00489354133605957,0.007979759015142918,0.0005656853318214417
-145.7699737548828,-51.09846878051758,107.83277130126953,7.638637542724609,-3.464017868041992,-5.0896124839782715,-0.003254414303228259,0.0046486034989356995,-0.0003546476364135742
-145.77182006835938,-51.095027923583984,107.8458480834961,7.638650894165039,-3.4719109535217285,-5.100767135620117,0.000796280859503895,-0.0017449262086302042,-0.0005327165708877146
-145.77020263671875,-51.08950424194336,107.85755920410156,7.6303019523620605,-3.4626035690307617,-5.097640514373779,0.002567283809185028,-0.0008590519428253174,0.0019961970392614603
-145.77012634277344,-51.089412689208984,107.86543273925781,7.643942356109619,-3.4639217853546143,-5.115267753601074,-0.003081932896748185,0.002058781683444977,-0.0025611368473619223
-145.7725830078125,-51.094051361083984,107.87012481689453,7.640117645263672,-3.4779064655303955,-5.097688674926758,-0.004370511509478092,0.008757599629461765,0.0027460979763418436
-145.76722717285156,-51.096656799316406,107.86859130859375,7.633344650268555,-3.4585490226745605,-5.096088409423828,-0.0035647302865982056,0.005927868653088808,0.0005280598998069763
-145.76913452148438,-51.096187591552734,107.879638671875,7.633078098297119,-3.4617133140563965,-5.094177722930908,-0.0012651087017729878,0.0032929705921560526,-0.0003077089786529541
-145.7721710205078,-51.093902587890625,107.8925552368164,7.639607906341553,-3.4751646518707275,-5.093017101287842,-0.0021513551473617554,-0.0006973744020797312,-0.0016208738088607788
-145.7713623046875,-51.091957092285156,107.90095520019531,7.632160186767578,-3.4645802974700928,-5.105745792388916,0.0016005713259801269,0.0038856640458106995,0.0026030465960502625
-145.7675018310547,-51.09334182739258,107.90513610839844,7.627295017242432,-3.4546189308166504,-5.102863311767578,-0.00348053895868361,0.0027904282324016094,-0.0023722650948911905
-145.77230834960938,-51.09601974487305,107.91459655761719,7.654145240783691,-3.481234550476074,-5.0985918045043945,-0.0025469809770584106,0.007021985948085785,0.0007828698144294322
-145.7686767578125,-51.09599685668945,107.91902923583984,7.631534576416016,-3.458531141281128,-5.0941338539123535,-0.0007048249244689941,0.0009564683423377573,-0.00013597309589385986
-145.76914978027344,-51.092464447021484,107.93112182617188,7.64853048324585,-3.466866970062256,-5.100615978240967,0.0016467644600197673,0.0014076007064431906,0.00043567270040512085
-145.77108764648438,-51.09189224243164,107.94160461425781,7.624342918395996,-3.46443510055542,-5.103006839752197,-0.0036101790610700846,0.00019166618585586548,-0.0025298448745161295
-145.77301025390625,-51.094078063964844,107.94750213623047,7.645498275756836,-3.4763097763061523,-5.104372501373291,-0.0022497030440717936,0.008697249926626682,0.0025136396288871765
-145.7664794921875,-51.097900390625,107.94623565673828,7.624490737915039,-3.45467472076416,-5.0947265625,-0.0037927187513560057,0.005683861672878265,-0.0006515533314086497
-145.77084350585938,-51.09811782836914,107.95861053466797,7.639173984527588,-3.4716129302978516,-5.0976948738098145,-0.0013694168301299214,0.003643520176410675,-0.0012673437595367432
-145.7717742919922,-51.095149993896484,107.97025299072266,7.63255500793457,-3.464787483215332,-5.093932628631592,-0.0003300607786513865,-0.0014971945201978087,-2.086162567138672e-05
-145.7704620361328,-51.090911865234375,107.97994232177734,7.646730422973633,-3.473038911819458,-5.1134138107299805,0.002287142211571336,0.0009471552330069244,0.0011382624506950378
-145.76878356933594,-51.09215545654297,107.9862060546875,7.634221076965332,-3.4616775512695312,-5.109929084777832,-0.0032763932831585407,0.0034434727858752012,-0.0010695308446884155
-145.77175903320312,-51.096134185791016,107.99142456054688,7.6402692794799805,-3.476134777069092,-5.103443622589111,-0.004649162292480469,0.007907860912382603,0.000574253557715565
-145.76829528808594,-51.09840393066406,107.99290466308594,7.631932258605957,-3.454059362411499,-5.0951385498046875,-0.002713501453399658,0.005882792640477419,0.0018136575818061829
-145.76853942871094,-51.09667205810547,108.00286102294922,7.636944770812988,-3.466284990310669,-5.095661640167236,-0.000934302865061909,0.001267157611437142,-0.001554936170578003
-145.7717742919922,-51.09377670288086,108.01791381835938,7.638514041900635,-3.471893787384033,-5.105073928833008,0.0008800998330116272,-0.0008828939753584564,-0.0004213303909637034
-145.7698516845703,-51.0913200378418,108.0250015258789,7.63301420211792,-3.4622952938079834,-5.104067325592041,-0.0009141864138655365,0.0020956620573997498,0.0018479304853826761
-145.7692413330078,-51.09383010864258,108.02800750732422,7.631398677825928,-3.459548234939575,-5.1069722175598145,-0.00519193708896637,0.006750785280019045,-0.00043921172618865967
-145.77175903320312,-51.09815216064453,108.03350067138672,7.6390862464904785,-3.476090669631958,-5.091470718383789,-0.004786252975463867,0.006156228482723236,8.773059380473569e-05
-145.76904296875,-51.09674072265625,108.03961944580078,7.642818927764893,-3.4804649353027344,-5.086771011352539,0.0005448237061500549,0.002674944931641221,0.002300180494785309
-145.76760864257812,-51.092559814453125,108.05088806152344,7.6306939125061035,-3.468742847442627,-5.094476222991943,0.00035148116876371205,-0.0015836209058761597,-0.0012908128555864096
-145.77223205566406,-51.0919189453125,108.0640640258789,7.6363043785095215,-3.464935064315796,-5.105697154998779,-0.0021137299481779337,0.003156624734401703,-0.0007219613180495799
-145.7703399658203,-51.09569549560547,108.06559753417969,7.631279468536377,-3.4639337062835693,-5.0982842445373535,-0.0042568896897137165,0.007703342009335756,0.0013304874300956726
-145.76808166503906,-51.09807586669922,108.06802368164062,7.649590015411377,-3.4662835597991943,-5.099574565887451,-0.002730265259742737,0.005320646334439516,0.00040624296525493264
-145.7706298828125,-51.095924377441406,108.08013916015625,7.62722635269165,-3.462135076522827,-5.089656352996826,-0.001623108983039856,-0.0002492219500709325,-0.0009588898974470794
-145.77345275878906,-51.09098434448242,108.09474182128906,7.641781806945801,-3.4673116207122803,-5.098572254180908,0.001680665067397058,-0.002669915556907654,3.911555268132361e-06
-145.77122497558594,-51.08879089355469,108.10252380371094,7.625795841217041,-3.457392692565918,-5.109110355377197,-0.0009659678325988352,0.002431310946121812,0.0011356547474861145
-145.77178955078125,-51.09353256225586,108.10551452636719,7.6363115310668945,-3.473139524459839,-5.104704856872559,-0.006371364928781986,0.007788651157170534,-0.0014994293451309204
-145.7714385986328,-51.098609924316406,108.10740661621094,7.631834030151367,-3.4742088317871094,-5.084365367889404,-0.003526360262185335,0.008714386261999607,0.00293720536865294
-145.76727294921875,-51.096824645996094,108.11351013183594,7.650618076324463,-3.464237689971924,-5.090886116027832,0.0005966052995063365,0.00066366046667099,-0.0012032686499878764
-145.7714080810547,-51.09223175048828,108.1314697265625,7.631339073181152,-3.4626305103302,-5.093122482299805,0.0009438022971153259,-0.0016927719116210938,-0.0006362796411849558
-145.77354431152344,-51.09009552001953,108.141845703125,7.6471476554870605,-3.4797377586364746,-5.111459732055664,-0.002107769250869751,0.0007541850791312754,-0.0008422881364822388
-145.77073669433594,-51.092315673828125,108.14363098144531,7.62880277633667,-3.465846061706543,-5.106713771820068,-0.0017490237951278687,0.007632934022694826,0.003401004010811448
-145.7683868408203,-51.09555435180664,108.14615631103516,7.640719413757324,-3.474712371826172,-5.10559606552124,-0.004925951827317476,0.0041270628571510315,-0.0027094038669019938
-145.77395629882812,-51.096134185791016,108.1583023071289,7.6319260597229,-3.4711434841156006,-5.088291168212891,-0.0021714719478040934,0.0047666956670582294,0.001539476215839386
-145.77113342285156,-51.09371566772461,108.16462707519531,7.635746955871582,-3.4653403759002686,-5.098986625671387,-0.0013284385204315186,-9.723008406581357e-05,-0.0006202608346939087
-145.7720947265625,-51.09153366088867,108.17584228515625,7.630951881408691,-3.460369348526001,-5.100656986236572,0.0005772337899543345,0.0026850029826164246,0.0011449679732322693
-145.77088928222656,-51.092227935791016,108.18196105957031,7.64088773727417,-3.468475580215454,-5.097835540771484,-0.0036235901061445475,0.002436898648738861,-0.0009663403616286814
-145.77284240722656,-51.09357833862305,108.1891860961914,7.633675575256348,-3.4674816131591797,-5.101737976074219,-0.0014938414096832275,0.005628727376461029,0.0012209640117362142
-145.7699737548828,-51.09412384033203,108.19447326660156,7.631622314453125,-3.4690170288085938,-5.101762771606445,-0.0020813196897506714,0.002294965321198106,-0.0005170702934265137
-145.7729949951172,-51.09345245361328,108.20582580566406,7.630890846252441,-3.4654364585876465,-5.0909953117370605,-0.0013846904039382935,0.0032594429794698954,-0.0008888543234206736
-145.77239990234375,-51.0938720703125,108.2127914428711,7.645103454589844,-3.4738519191741943,-5.098682403564453,-0.0022999944631010294,0.003306381404399872,0.0006431714282371104
-145.77157592773438,-51.09413528442383,108.21817779541016,7.6396002769470215,-3.4719011783599854,-5.101525783538818,-0.0024549663066864014,0.004935078322887421,0.0003432854718994349
-145.77212524414062,-51.09621047973633,108.22483825683594,7.637718200683594,-3.469336748123169,-5.096418857574463,-0.0038627542089670897,0.0052528465166687965,-0.0007737429696135223
-145.77249145507812,-51.09619903564453,108.23220825195312,7.645326614379883,-3.473388433456421,-5.090234279632568,-0.0013340262230485678,0.002969614928588271,0.0014254822162911296
-145.7695770263672,-51.09269714355469,108.24039459228516,7.639826774597168,-3.4645087718963623,-5.101634979248047,0.0015752390027046204,0.00012051314843120053,0.0008327886462211609
-145.772705078125,-51.09041976928711,108.2537612915039,7.626996994018555,-3.4678735733032227,-5.101336479187012,-0.0023454425390809774,-0.000751391111407429,-0.0022817403078079224
-145.77597045898438,-51.09151077270508,108.26335144042969,7.6369242668151855,-3.4812138080596924,-5.109030723571777,-0.0008996576652862132,0.0044578686356544495,0.00035185369779355824
-145.77076721191406,-51.09420394897461,108.26371002197266,7.627501964569092,-3.4519717693328857,-5.100658893585205,-0.003965944051742554,0.006362610030919313,0.0013889746041968465
-145.77139282226562,-51.09674072265625,108.26830291748047,7.647562026977539,-3.467820644378662,-5.098141670227051,-0.0038951640017330647,0.00689160218462348,-0.0006891787052154541
-145.7738494873047,-51.09780502319336,108.2781753540039,7.632838249206543,-3.4723281860351562,-5.092802047729492,-0.003062561387196183,0.002850033575668931,-0.0009261071681976318
-145.77268981933594,-51.0938720703125,108.28826141357422,7.64759635925293,-3.47208309173584,-5.103477954864502,0.002774410415440798,2.6263302061124705e-05,0.001956336200237274
-145.7700958251953,-51.09019470214844,108.29791259765625,7.627938747406006,-3.452653408050537,-5.105942726135254,-0.00034682449768297374,-0.0004716217517852783,-0.0010106712579727173
-145.7742156982422,-51.091251373291016,108.30828857421875,7.645541191101074,-3.483306646347046,-5.1059889793396,-0.0020828100387007,0.003535859752446413,-0.0004842877679038793
-145.77220153808594,-51.09368133544922,108.31149291992188,7.633042335510254,-3.466090679168701,-5.09253454208374,-0.0025004150811582804,0.0054674227721989155,0.0011654570698738098
-145.771728515625,-51.09461212158203,108.31761932373047,7.638901710510254,-3.462792158126831,-5.108453273773193,-0.0025369226932525635,0.0035459178034216166,-0.0011041760444641113
-145.77490234375,-51.09458923339844,108.32881927490234,7.6281843185424805,-3.464204788208008,-5.094074249267578,-0.0024303793907165527,0.0029144815634936094,-0.0008713455754332244
-145.77267456054688,-51.093746185302734,108.33483123779297,7.635240077972412,-3.46943736076355,-5.098850727081299,-0.00016801056335680187,0.0036532061640173197,0.0021396204829216003
-145.7704620361328,-51.093231201171875,108.3408203125,7.632319450378418,-3.459005832672119,-5.103890419006348,-0.002344325417652726,0.0027220698539167643,-0.0009406358003616333
-145.7742156982422,-51.09412384033203,108.35051727294922,7.640311241149902,-3.4750447273254395,-5.102054595947266,-0.0033497812692075968,0.004197843372821808,0.0004151836328674108
-145.77296447753906,-51.09370040893555,108.35623931884766,7.6368184089660645,-3.462991952896118,-5.096685886383057,-0.0011455268831923604,0.002316199243068695,0.0008868053555488586
-145.770751953125,-51.09135818481445,108.36438751220703,7.6432647705078125,-3.4635283946990967,-5.106311798095703,0.0005802141386084259,0.0014493241906166077,0.0014530495973303914
-145.77230834960938,-51.09048843383789,108.37493896484375,7.634365558624268,-3.472656726837158,-5.10327672958374,-0.002204627264291048,0.0010231512133032084,-0.002265349728986621
